File: 350.chi
C:\Users\geste_000\Documents\MatLab Analysis\PSU\(111) Dense\clamped files\350.t
2-Theta Angle (Degrees)
Intensity
       1500
 0.513259  969.243
 0.519346  1053.82
 0.525433  999.617
 0.531519  1067.36
 0.537606  939.499
 0.543693  1089.85
 0.54978  998.709
 0.555866  930.017
 0.561953  973.164
 0.56804  999.933
 0.574127  1006.35
 0.580213  1025.56
 0.5863  954.616
 0.592387  1006.06
 0.598474  1038.86
 0.60456  1020.49
 0.610647  1095.39
 0.616734  967.192
 0.622821  1002.52
 0.628908  1085.99
 0.634994  1019.63
 0.641081  956.126
 0.647168  1070.68
 0.653255  1011.79
 0.659341  1052.1
 0.665428  1043.71
 0.671515  982.003
 0.677602  1087.65
 0.683688  1091.07
 0.689775  1006.3
 0.695862  994.778
 0.701949  1008.48
 0.708036  1026.82
 0.714122  836.074
 0.720209  905.736
 0.726296  978.753
 0.732383  1041.74
 0.738469  1128.4
 0.744556  1090.66
 0.750643  1042.86
 0.75673  1031.46
 0.762816  1194.66
 0.768903  915.857
 0.77499  1191.06
 0.781077  1023.42
 0.787164  1055.93
 0.79325  1060.67
 0.799337  1003.31
 0.805424  1032.41
 0.811511  1105.39
 0.817597  1132.72
 0.823684  1077.57
 0.829771  1113.85
 0.835858  1102.14
 0.841944  1051.72
 0.848031  1160.72
 0.854118  1082.66
 0.860205  1051.15
 0.866291  1003.74
 0.872378  1114.82
 0.878465  1031.77
 0.884552  1039.66
 0.890639  1130.57
 0.896725  1054.35
 0.902812  1035.67
 0.908899  1134.72
 0.914986  1102.9
 0.921072  976.969
 0.927159  1047.74
 0.933246  1120.39
 0.939333  1086.39
 0.945419  1125.58
 0.951506  1057.21
 0.957593  1102.42
 0.96368  1115.28
 0.969766  1074.53
 0.975853  1099.91
 0.98194  1049.29
 0.988027  1051.07
 0.994114  1144.13
 1.0002  1174.69
 1.00629  1103.72
 1.01237  1105.9
 1.01846  1061.13
 1.02455  1087.31
 1.03063  1078.51
 1.03672  1061.58
 1.04281  1178.94
 1.04889  1116.51
 1.05498  1158.78
 1.06107  1088.07
 1.06715  1116.81
 1.07324  1105.34
 1.07933  1148.66
 1.08542  1166.37
 1.0915  1008.13
 1.09759  1097.11
 1.10368  1139.02
 1.10976  1094.43
 1.11585  1096.59
 1.12194  1162.55
 1.12802  1068.19
 1.13411  1169.84
 1.1402  1158.02
 1.14628  1100.47
 1.15237  1037.29
 1.15846  1062.43
 1.16454  1133.71
 1.17063  1125.31
 1.17672  1161.1
 1.1828  1219.84
 1.18889  1072.31
 1.19498  1129.35
 1.20106  1102.79
 1.20715  1173.7
 1.21324  1205.07
 1.21932  1213.51
 1.22541  1160.03
 1.2315  1117.67
 1.23758  1158.32
 1.24367  1237.05
 1.24976  1168.64
 1.25584  1137.14
 1.26193  1190.79
 1.26802  1123.48
 1.2741  1097.37
 1.28019  1157.9
 1.28628  1146.94
 1.29237  1210.84
 1.29845  1133.47
 1.30454  1197.91
 1.31063  1094.97
 1.31671  1093.06
 1.3228  1201.98
 1.32889  1229.02
 1.33497  1164.48
 1.34106  1169.08
 1.34715  1195.33
 1.35323  1133.58
 1.35932  1181.3
 1.36541  1175.75
 1.37149  1184.58
 1.37758  1179.4
 1.38367  1251.61
 1.38975  1194.16
 1.39584  1216.47
 1.40193  1174.16
 1.40801  1153.35
 1.4141  1219.7
 1.42019  1163.45
 1.42627  1250.08
 1.43236  1220.72
 1.43845  1169.44
 1.44453  1190.32
 1.45062  1147.06
 1.45671  1186.79
 1.46279  1245.1
 1.46888  1193.35
 1.47497  1155.31
 1.48105  1272.54
 1.48714  1204.66
 1.49323  1206.17
 1.49932  1196.33
 1.5054  1281.31
 1.51149  1333.26
 1.51758  1500.81
 1.52366  1431.85
 1.52975  1468.67
 1.53584  1624.85
 1.54192  1645.11
 1.54801  1496.88
 1.5541  1385.68
 1.56018  1351.03
 1.56627  1365.76
 1.57236  1182.22
 1.57844  1202.19
 1.58453  1239.79
 1.59062  1215.42
 1.5967  1211.9
 1.60279  1228.75
 1.60888  1196.46
 1.61496  1168.64
 1.62105  1254.17
 1.62714  1224.45
 1.63322  1193.47
 1.63931  1251
 1.6454  1257
 1.65148  1215.15
 1.65757  1194.02
 1.66366  1275
 1.66974  1302.27
 1.67583  1263.01
 1.68192  1217.67
 1.688  1253.85
 1.69409  1194.49
 1.70018  1229.92
 1.70627  1220.5
 1.71235  1227.42
 1.71844  1260.39
 1.72453  1316.87
 1.73061  1147.37
 1.7367  1217.53
 1.74279  1236.13
 1.74887  1236.55
 1.75496  1269.09
 1.76105  1259.07
 1.76713  1233.94
 1.77322  1274.82
 1.77931  1248.19
 1.78539  1253.43
 1.79148  1281.13
 1.79757  1250.61
 1.80365  1234.45
 1.80974  1169.82
 1.81583  1249.24
 1.82191  1204.89
 1.828  1259.74
 1.83409  1296.02
 1.84017  1284.31
 1.84626  1312.64
 1.85235  1299.1
 1.85843  1259.03
 1.86452  1284.66
 1.87061  1314.43
 1.87669  1225.53
 1.88278  1287.74
 1.88887  1240.82
 1.89495  1294.35
 1.90104  1268.47
 1.90713  1293.22
 1.91322  1264.05
 1.9193  1233.1
 1.92539  1321.27
 1.93148  1262.06
 1.93756  1266.86
 1.94365  1260
 1.94974  1285.71
 1.95582  1260.08
 1.96191  1344.09
 1.968  1370.91
 1.97408  1366.03
 1.98017  1368.03
 1.98626  1266.53
 1.99234  1260.14
 1.99843  1337.75
 2.00452  1406.36
 2.0106  1276.77
 2.01669  1291.7
 2.02278  1317.21
 2.02886  1289.33
 2.03495  1311.03
 2.04104  1370.21
 2.04712  1328.82
 2.05321  1345.52
 2.0593  1278.8
 2.06538  1364.23
 2.07147  1378.4
 2.07756  1360.86
 2.08364  1331.98
 2.08973  1310.76
 2.09582  1366.13
 2.10191  1392.27
 2.10799  1384.29
 2.11408  1399.68
 2.12017  1463.5
 2.12625  1521.02
 2.13234  1605.14
 2.13843  1727.59
 2.14451  1876.77
 2.1506  2096.61
 2.15669  2169.15
 2.16277  2228.8
 2.16886  2233.31
 2.17495  2140.13
 2.18103  2055.61
 2.18712  1900.42
 2.19321  1604.99
 2.19929  1552.06
 2.20538  1484.31
 2.21147  1481.11
 2.21755  1396.83
 2.22364  1341.41
 2.22973  1396.38
 2.23581  1387.82
 2.2419  1450.62
 2.24799  1363.95
 2.25407  1296.29
 2.26016  1368.3
 2.26625  1427.4
 2.27233  1408.37
 2.27842  1394.41
 2.28451  1434.14
 2.29059  1401.37
 2.29668  1403.85
 2.30277  1424.6
 2.30886  1372.43
 2.31494  1447.2
 2.32103  1479.98
 2.32712  1421.64
 2.3332  1395.83
 2.33929  1429.99
 2.34538  1397.67
 2.35146  1443.07
 2.35755  1434.1
 2.36364  1517.54
 2.36972  1499.48
 2.37581  1508.85
 2.3819  1474.35
 2.38798  1509.05
 2.39407  1491.3
 2.40016  1533.74
 2.40624  1495.02
 2.41233  1492.85
 2.41842  1514.75
 2.4245  1550.48
 2.43059  1539.12
 2.43668  1548.71
 2.44276  1543.71
 2.44885  1591.53
 2.45494  1580.69
 2.46102  1617.21
 2.46711  1565.29
 2.4732  1617.88
 2.47928  1611.83
 2.48537  1683.42
 2.49146  1651.77
 2.49755  1632.18
 2.50363  1670.56
 2.50972  1728.39
 2.51581  1769.64
 2.52189  1765.65
 2.52798  1817.67
 2.53407  1798.3
 2.54015  1955.73
 2.54624  2015.01
 2.55233  2031.64
 2.55841  1993.8
 2.5645  2139.97
 2.57059  2177.42
 2.57667  2308.9
 2.58276  2384
 2.58885  2453.64
 2.59493  2640.95
 2.60102  2889.35
 2.60711  3135.62
 2.61319  3607.03
 2.61928  4363.8
 2.62537  5665.94
 2.63145  8543.92
 2.63754  15163.8
 2.64363  27939.8
 2.64971  40748.3
 2.6558  40469.8
 2.66189  27999.2
 2.66797  16379.2
 2.67406  10475.9
 2.68015  8344.19
 2.68623  7923.76
 2.69232  8383.68
 2.69841  9786.74
 2.7045  12465.1
 2.71058  18766.7
 2.71667  37185
 2.72276  103386
 2.72884  238395
 2.73493  267309
 2.74102  135155
 2.7471  49455.7
 2.75319  22106
 2.75928  13292.9
 2.76536  9501.54
 2.77145  7519.52
 2.77754  6214.79
 2.78362  5406.46
 2.78971  4702.15
 2.7958  4183.91
 2.80188  3735.67
 2.80797  3446.91
 2.81406  3114.44
 2.82014  2902.79
 2.82623  2825.75
 2.83232  2678.38
 2.8384  2552.26
 2.84449  2467.98
 2.85058  2348.88
 2.85666  2271.02
 2.86275  2182.7
 2.86884  2151
 2.87492  2057.47
 2.88101  2042.86
 2.8871  2021.77
 2.89318  1937.86
 2.89927  1910.98
 2.90536  1961.66
 2.91144  1878.31
 2.91753  1817.84
 2.92362  1864.89
 2.92971  1820.55
 2.93579  1809.75
 2.94188  1821.84
 2.94797  1732.27
 2.95405  1802.19
 2.96014  1765.97
 2.96623  1772.38
 2.97231  1804.19
 2.9784  1726.84
 2.98449  1738.71
 2.99057  1749.76
 2.99666  1773.19
 3.00275  1748.85
 3.00883  1749.32
 3.01492  1767.49
 3.02101  1769.39
 3.02709  1774.07
 3.03318  1802.19
 3.03927  1815.87
 3.04535  1876.6
 3.05144  1883.11
 3.05753  1873.49
 3.06361  1859.63
 3.0697  1923.18
 3.07579  2004.84
 3.08187  2078.05
 3.08796  2166.83
 3.09405  2086.02
 3.10013  1977.49
 3.10622  1882.73
 3.11231  1775.47
 3.1184  1758.07
 3.12448  1745.2
 3.13057  1756.84
 3.13666  1837.55
 3.14274  1926.63
 3.14883  2064.9
 3.15492  2158
 3.161  2098.75
 3.16709  1902.92
 3.17318  1816.42
 3.17926  1797.72
 3.18535  1703.36
 3.19144  1738.9
 3.19752  1672.53
 3.20361  1703.91
 3.2097  1704.52
 3.21578  1682.65
 3.22187  1728.32
 3.22796  1728.58
 3.23404  1690.03
 3.24013  1731.2
 3.24622  1746.18
 3.2523  1697.11
 3.25839  1699.55
 3.26448  1700.55
 3.27056  1747.54
 3.27665  1696.93
 3.28274  1740.34
 3.28882  1760.06
 3.29491  1662.23
 3.301  1737.75
 3.30708  1730.88
 3.31317  1696.56
 3.31926  1692.9
 3.32534  1782.3
 3.33143  1717.75
 3.33752  1674.55
 3.34361  1744.29
 3.34969  1705.73
 3.35578  1740.28
 3.36187  1762.68
 3.36795  1733.17
 3.37404  1765.61
 3.38013  1778.26
 3.38621  1816.02
 3.3923  1814.13
 3.39839  1779.55
 3.40447  1814.08
 3.41056  1812.93
 3.41665  1796.06
 3.42273  1859.31
 3.42882  1827.15
 3.43491  1890.1
 3.44099  1867.6
 3.44708  1887.08
 3.45317  1875.11
 3.45925  1851.12
 3.46534  1815.16
 3.47143  1792.93
 3.47751  1801.16
 3.4836  1836.73
 3.48969  1836.51
 3.49577  1844.3
 3.50186  1844.03
 3.50795  1825.4
 3.51403  1812.12
 3.52012  1809.97
 3.52621  1807.79
 3.5323  1813.53
 3.53838  1838.62
 3.54447  1813.63
 3.55056  1806.35
 3.55664  1810.36
 3.56273  1809.97
 3.56882  1867.2
 3.5749  1848.93
 3.58099  1833.22
 3.58708  1855.92
 3.59316  1881.85
 3.59925  1915.77
 3.60534  1891.18
 3.61142  1874.66
 3.61751  1918.95
 3.6236  1868.97
 3.62968  1937.74
 3.63577  1957.02
 3.64186  1999.26
 3.64794  1981.81
 3.65403  1968.44
 3.66012  2014.21
 3.6662  2075.24
 3.67229  2139.39
 3.67838  2162.87
 3.68446  2264.5
 3.69055  2391.81
 3.69664  2561.09
 3.70272  2809.4
 3.70881  2982.57
 3.7149  3189.23
 3.72098  3248.87
 3.72707  3362.12
 3.73316  3541.21
 3.73925  3747.72
 3.74533  4323.58
 3.75142  5284.79
 3.75751  6426.66
 3.76359  7089.75
 3.76968  6748.36
 3.77577  5582.83
 3.78185  4332.39
 3.78794  3488.8
 3.79403  2927.33
 3.80011  2615.22
 3.8062  2441.29
 3.81229  2356.47
 3.81837  2314.4
 3.82446  2208.24
 3.83055  2296.07
 3.83663  2169.45
 3.84272  2179.76
 3.84881  2144.55
 3.85489  2128.18
 3.86098  2142.58
 3.86707  2100.22
 3.87315  2112.47
 3.87924  2129.5
 3.88533  2090.62
 3.89141  2137.2
 3.8975  2121.72
 3.90359  2111.9
 3.90967  2113.58
 3.91576  2122.91
 3.92185  2096.2
 3.92794  2155.3
 3.93402  2164.85
 3.94011  2194.99
 3.9462  2164.81
 3.95228  2182.02
 3.95837  2171.04
 3.96446  2207.85
 3.97054  2236.81
 3.97663  2251.58
 3.98272  2226.83
 3.9888  2278.71
 3.99489  2311.33
 4.00098  2276.57
 4.00706  2263.3
 4.01315  2290.32
 4.01924  2351.36
 4.02532  2352.63
 4.03141  2356.93
 4.0375  2377.07
 4.04358  2402.01
 4.04967  2464.92
 4.05576  2459.73
 4.06184  2487.51
 4.06793  2476.46
 4.07402  2556.28
 4.0801  2530.83
 4.08619  2490.89
 4.09228  2552.08
 4.09836  2574.99
 4.10445  2649.44
 4.11054  2698.72
 4.11662  2669.36
 4.12271  2678.15
 4.1288  2711.04
 4.13489  2735.78
 4.14097  2796.13
 4.14706  2802.14
 4.15315  2840.19
 4.15923  2860.35
 4.16532  2933.41
 4.17141  2967.61
 4.17749  3026.33
 4.18358  3049.52
 4.18967  3126.7
 4.19575  3148.18
 4.20184  3146.14
 4.20793  3231.73
 4.21401  3252.09
 4.2201  3247.76
 4.22619  3305.98
 4.23227  3411.33
 4.23836  3392.99
 4.24445  3446.79
 4.25053  3455.96
 4.25662  3526.44
 4.26271  3581.63
 4.26879  3658.63
 4.27488  3645.58
 4.28097  3714.62
 4.28705  3753.14
 4.29314  3827.34
 4.29923  3854
 4.30531  3955.9
 4.3114  4014.52
 4.31749  4093.56
 4.32357  4128.82
 4.32966  4057.23
 4.33575  4079.36
 4.34183  4148.29
 4.34792  4205.9
 4.35401  4193.99
 4.3601  4218.87
 4.36618  4262.37
 4.37227  4339.02
 4.37836  4339.3
 4.38444  4328.44
 4.39053  4289.19
 4.39662  4252.81
 4.4027  4288.09
 4.40879  4255.99
 4.41488  4314.97
 4.42096  4321.72
 4.42705  4323.84
 4.43314  4358.53
 4.43922  4412.93
 4.44531  4429.67
 4.4514  4450.16
 4.45748  4494.83
 4.46357  4585.36
 4.46966  4579.75
 4.47574  4439.82
 4.48183  4411.36
 4.48792  4395.82
 4.494  4362.68
 4.50009  4377.22
 4.50618  4331.88
 4.51226  4349.75
 4.51835  4383.74
 4.52444  4403.81
 4.53052  4399.53
 4.53661  4451.3
 4.5427  4457.35
 4.54879  4560.38
 4.55487  4756.81
 4.56096  4918.77
 4.56705  5046.27
 4.57313  5162.71
 4.57922  5272.1
 4.58531  5182.33
 4.59139  5162.96
 4.59748  5018.72
 4.60357  4873.15
 4.60965  4851.62
 4.61574  4848.21
 4.62183  4776.64
 4.62791  4728.68
 4.634  4619.87
 4.64009  4525.57
 4.64617  4429.03
 4.65226  4294.17
 4.65835  4180.27
 4.66443  4075.6
 4.67052  4121.42
 4.67661  4009.17
 4.68269  4031.91
 4.68878  3953.54
 4.69487  3933
 4.70095  3919.56
 4.70704  3902.66
 4.71313  3850.99
 4.71921  3818.56
 4.7253  3811.57
 4.73139  3774.4
 4.73747  3758.42
 4.74356  3718.08
 4.74965  3659.53
 4.75574  3617.37
 4.76182  3642.58
 4.76791  3659.41
 4.774  3551.96
 4.78008  3518.19
 4.78617  3504.81
 4.79226  3460.85
 4.79834  3458.61
 4.80443  3438.89
 4.81052  3417.04
 4.8166  3358.46
 4.82269  3360.21
 4.82878  3314.78
 4.83486  3322.2
 4.84095  3296.65
 4.84704  3273.84
 4.85312  3242.85
 4.85921  3225.99
 4.8653  3225.81
 4.87138  3273.11
 4.87747  3230.02
 4.88356  3219.44
 4.88964  3231.02
 4.89573  3124.66
 4.90182  3099.66
 4.9079  3087.45
 4.91399  3036.1
 4.92008  2994.68
 4.92616  2974.39
 4.93225  2929.43
 4.93834  2873.32
 4.94443  2865.91
 4.95051  2898.38
 4.9566  2860.72
 4.96269  2846.04
 4.96877  2776.13
 4.97486  2816.72
 4.98095  2804.99
 4.98703  2774.84
 4.99312  2795.21
 4.99921  2693.48
 5.00529  2704.32
 5.01138  2699.62
 5.01747  2628.9
 5.02355  2633.73
 5.02964  2635.39
 5.03573  2606.3
 5.04181  2611.38
 5.0479  2631.83
 5.05399  2573.63
 5.06007  2620.61
 5.06616  2590.92
 5.07225  2614.8