File: 351.chi
C:\Users\geste_000\Documents\MatLab Analysis\PSU\(111) Dense\clamped files\351.t
2-Theta Angle (Degrees)
Intensity
       1500
 0.513259  1177.83
 0.519346  1055.74
 0.525433  1129.5
 0.531519  1030.45
 0.537606  940.141
 0.543693  1074.76
 0.54978  1064.38
 0.555866  1131.22
 0.561953  893.779
 0.56804  1053.84
 0.574127  1123.88
 0.580213  1040.02
 0.5863  1023.1
 0.592387  1066.19
 0.598474  1058.39
 0.60456  1021.97
 0.610647  1081.22
 0.616734  935.478
 0.622821  951.286
 0.628908  1041.4
 0.634994  967.296
 0.641081  1039.05
 0.647168  1093.28
 0.653255  948.074
 0.659341  970.015
 0.665428  1023.07
 0.671515  1032.68
 0.677602  1066.93
 0.683688  1086.22
 0.689775  1056.21
 0.695862  1014.05
 0.701949  1091.9
 0.708036  965.006
 0.714122  1038.85
 0.720209  976.73
 0.726296  1061.42
 0.732383  1100.56
 0.738469  926.045
 0.744556  1126.85
 0.750643  1049.05
 0.75673  1153.51
 0.762816  993.727
 0.768903  1037.01
 0.77499  1138.92
 0.781077  1096.1
 0.787164  1048.58
 0.79325  1021.86
 0.799337  1021.87
 0.805424  1092.16
 0.811511  1094.43
 0.817597  1091.37
 0.823684  1082.62
 0.829771  1077.98
 0.835858  1102.18
 0.841944  1063.21
 0.848031  1086.34
 0.854118  1046.2
 0.860205  953.504
 0.866291  1081.09
 0.872378  1117.39
 0.878465  1103.1
 0.884552  997.348
 0.890639  1035.74
 0.896725  1049.93
 0.902812  1112.89
 0.908899  1157.77
 0.914986  1098.57
 0.921072  1066.15
 0.927159  1090.14
 0.933246  1099.6
 0.939333  1068.5
 0.945419  1025.7
 0.951506  1028.32
 0.957593  1019.79
 0.96368  1044.85
 0.969766  1102.43
 0.975853  1103.75
 0.98194  1112.5
 0.988027  1118.06
 0.994114  1049.33
 1.0002  1123.1
 1.00629  1066.37
 1.01237  1128.51
 1.01846  1028.1
 1.02455  1188.51
 1.03063  1088.69
 1.03672  1043.8
 1.04281  1042.82
 1.04889  1117.61
 1.05498  982.403
 1.06107  1053.05
 1.06715  1006.7
 1.07324  1170.8
 1.07933  1055.74
 1.08542  1133.89
 1.0915  1051.46
 1.09759  1133.58
 1.10368  1123.1
 1.10976  1138.71
 1.11585  1077.17
 1.12194  1166.96
 1.12802  1103.7
 1.13411  1092.13
 1.1402  1091.53
 1.14628  1078.94
 1.15237  1050.26
 1.15846  1074.54
 1.16454  1096.07
 1.17063  1197.58
 1.17672  1129.6
 1.1828  1076.04
 1.18889  1129.46
 1.19498  1109.66
 1.20106  1120.31
 1.20715  1038.97
 1.21324  1137.79
 1.21932  1161.93
 1.22541  1189.09
 1.2315  1141.59
 1.23758  1158.6
 1.24367  1113.9
 1.24976  1108.72
 1.25584  1136.5
 1.26193  1128.54
 1.26802  1205.59
 1.2741  1123.51
 1.28019  1221.62
 1.28628  1083.3
 1.29237  1152.1
 1.29845  1215.11
 1.30454  1106.48
 1.31063  1126.77
 1.31671  1196.62
 1.3228  1165.14
 1.32889  1100.57
 1.33497  1189.06
 1.34106  1189.08
 1.34715  1133.98
 1.35323  1196.52
 1.35932  1165.65
 1.36541  1128.61
 1.37149  1145.82
 1.37758  1122.26
 1.38367  1236.21
 1.38975  1139.74
 1.39584  1179.83
 1.40193  1233.31
 1.40801  1224.99
 1.4141  1153.38
 1.42019  1143.6
 1.42627  1194.43
 1.43236  1249.51
 1.43845  1295.73
 1.44453  1274.91
 1.45062  1246.06
 1.45671  1184.99
 1.46279  1190.15
 1.46888  1242.05
 1.47497  1218.66
 1.48105  1290.38
 1.48714  1274.68
 1.49323  1199.25
 1.49932  1332.42
 1.5054  1255.86
 1.51149  1274.74
 1.51758  1400.87
 1.52366  1502.03
 1.52975  1551.14
 1.53584  1604.68
 1.54192  1551.22
 1.54801  1501.19
 1.5541  1285.26
 1.56018  1301.57
 1.56627  1240.27
 1.57236  1268.86
 1.57844  1289.28
 1.58453  1202.2
 1.59062  1197.95
 1.5967  1249.98
 1.60279  1242.29
 1.60888  1283.39
 1.61496  1250.31
 1.62105  1263.06
 1.62714  1212.01
 1.63322  1199.55
 1.63931  1211.65
 1.6454  1248.65
 1.65148  1174.14
 1.65757  1240.82
 1.66366  1219.12
 1.66974  1254.6
 1.67583  1228.75
 1.68192  1188.9
 1.688  1160.32
 1.69409  1263.45
 1.70018  1184.94
 1.70627  1238.37
 1.71235  1300.53
 1.71844  1269.37
 1.72453  1317.62
 1.73061  1263
 1.7367  1183.49
 1.74279  1260.1
 1.74887  1184.4
 1.75496  1177.37
 1.76105  1225.68
 1.76713  1235.88
 1.77322  1249.94
 1.77931  1241.75
 1.78539  1254.67
 1.79148  1293.48
 1.79757  1256.92
 1.80365  1220.87
 1.80974  1242.72
 1.81583  1218.97
 1.82191  1246.81
 1.828  1286.1
 1.83409  1300.66
 1.84017  1300.54
 1.84626  1242.02
 1.85235  1268.5
 1.85843  1215.85
 1.86452  1290.28
 1.87061  1188.65
 1.87669  1281.82
 1.88278  1265.22
 1.88887  1294.06
 1.89495  1263.45
 1.90104  1285.37
 1.90713  1254.74
 1.91322  1345.79
 1.9193  1286.11
 1.92539  1298.66
 1.93148  1271.78
 1.93756  1248.15
 1.94365  1286.46
 1.94974  1239.92
 1.95582  1303.15
 1.96191  1337.62
 1.968  1346.95
 1.97408  1226.92
 1.98017  1319.71
 1.98626  1323.17
 1.99234  1251.2
 1.99843  1260.36
 2.00452  1280.2
 2.0106  1248.92
 2.01669  1275.24
 2.02278  1362.16
 2.02886  1343.43
 2.03495  1281.36
 2.04104  1358.33
 2.04712  1252.95
 2.05321  1341.6
 2.0593  1353.53
 2.06538  1355.94
 2.07147  1299.96
 2.07756  1310.05
 2.08364  1255.51
 2.08973  1324.81
 2.09582  1354.7
 2.10191  1382.73
 2.10799  1372.97
 2.11408  1343.65
 2.12017  1418.21
 2.12625  1396.3
 2.13234  1543.57
 2.13843  1695.45
 2.14451  1910.61
 2.1506  2057.23
 2.15669  2228.87
 2.16277  2262.25
 2.16886  2194.71
 2.17495  2134.64
 2.18103  2086.09
 2.18712  1926.23
 2.19321  1734.91
 2.19929  1564.79
 2.20538  1450.8
 2.21147  1444.51
 2.21755  1422.64
 2.22364  1364.45
 2.22973  1443.45
 2.23581  1339.35
 2.2419  1419.63
 2.24799  1349.82
 2.25407  1389.28
 2.26016  1448.18
 2.26625  1353.49
 2.27233  1371.63
 2.27842  1377.06
 2.28451  1400.26
 2.29059  1389.77
 2.29668  1399.21
 2.30277  1384.8
 2.30886  1408.01
 2.31494  1477.44
 2.32103  1446.74
 2.32712  1418.39
 2.3332  1362.23
 2.33929  1452.82
 2.34538  1395.59
 2.35146  1459.51
 2.35755  1412.12
 2.36364  1461.13
 2.36972  1377.21
 2.37581  1501.97
 2.3819  1510.31
 2.38798  1397.55
 2.39407  1491.09
 2.40016  1514.84
 2.40624  1483.8
 2.41233  1443.71
 2.41842  1489.9
 2.4245  1507.33
 2.43059  1588.51
 2.43668  1558.62
 2.44276  1554.71
 2.44885  1600.9
 2.45494  1557.66
 2.46102  1550.97
 2.46711  1634.07
 2.4732  1658.27
 2.47928  1607.12
 2.48537  1651.2
 2.49146  1662.96
 2.49755  1718.23
 2.50363  1682.79
 2.50972  1756.81
 2.51581  1734.71
 2.52189  1770.77
 2.52798  1819.75
 2.53407  1834.6
 2.54015  1866.65
 2.54624  1907.05
 2.55233  2003.68
 2.55841  2020.15
 2.5645  2090.82
 2.57059  2153.38
 2.57667  2287.35
 2.58276  2352.11
 2.58885  2406.41
 2.59493  2617.68
 2.60102  2877.61
 2.60711  3137.74
 2.61319  3629.96
 2.61928  4299.63
 2.62537  5653.76
 2.63145  8567.42
 2.63754  15195.4
 2.64363  27832.3
 2.64971  40659.9
 2.6558  40441.1
 2.66189  27858.8
 2.66797  16294
 2.67406  10416.3
 2.68015  8343.76
 2.68623  7896.98
 2.69232  8396.32
 2.69841  9792.98
 2.7045  12492.5
 2.71058  18751.3
 2.71667  37100.6
 2.72276  103287
 2.72884  238219
 2.73493  266708
 2.74102  134758
 2.7471  49283.7
 2.75319  22063.3
 2.75928  13191.8
 2.76536  9519.92
 2.77145  7571.3
 2.77754  6281.12
 2.78362  5364.55
 2.78971  4629.48
 2.7958  4115.68
 2.80188  3713.53
 2.80797  3418.02
 2.81406  3138.11
 2.82014  2931.29
 2.82623  2723.32
 2.83232  2635.48
 2.8384  2520.34
 2.84449  2442.02
 2.85058  2342.99
 2.85666  2273.76
 2.86275  2221.05
 2.86884  2132.6
 2.87492  2096.44
 2.88101  2044.83
 2.8871  2018.19
 2.89318  1964.81
 2.89927  1893.05
 2.90536  1928.05
 2.91144  1850.54
 2.91753  1850.49
 2.92362  1801.39
 2.92971  1875.24
 2.93579  1845.34
 2.94188  1814.87
 2.94797  1794.48
 2.95405  1770.09
 2.96014  1789.4
 2.96623  1751.58
 2.97231  1784.58
 2.9784  1795.05
 2.98449  1763.14
 2.99057  1794.85
 2.99666  1834.29
 3.00275  1799
 3.00883  1757.91
 3.01492  1771.86
 3.02101  1753.03
 3.02709  1764.47
 3.03318  1783.29
 3.03927  1780.28
 3.04535  1814.74
 3.05144  1825.53
 3.05753  1887.84
 3.06361  1875.3
 3.0697  1908.33
 3.07579  1984.66
 3.08187  2099.26
 3.08796  2164.67
 3.09405  2103.2
 3.10013  1928.53
 3.10622  1820.24
 3.11231  1765.24
 3.1184  1767.56
 3.12448  1772.48
 3.13057  1828.57
 3.13666  1850.66
 3.14274  1947.71
 3.14883  2074.19
 3.15492  2184.85
 3.161  2061.95
 3.16709  1967.66
 3.17318  1758.96
 3.17926  1713.32
 3.18535  1769.12
 3.19144  1711.65
 3.19752  1748.96
 3.20361  1698.8
 3.2097  1679.81
 3.21578  1714.69
 3.22187  1714.64
 3.22796  1665.99
 3.23404  1721.36
 3.24013  1754.46
 3.24622  1740.17
 3.2523  1745.92
 3.25839  1712.55
 3.26448  1701.33
 3.27056  1670
 3.27665  1694.27
 3.28274  1694.55
 3.28882  1720.43
 3.29491  1701.74
 3.301  1692.66
 3.30708  1698.8
 3.31317  1685.92
 3.31926  1738.29
 3.32534  1731.85
 3.33143  1703.1
 3.33752  1754.8
 3.34361  1741.59
 3.34969  1727.9
 3.35578  1757.71
 3.36187  1729.23
 3.36795  1748.23
 3.37404  1777.09
 3.38013  1787.63
 3.38621  1772.75
 3.3923  1790.86
 3.39839  1786.89
 3.40447  1788.95
 3.41056  1813.8
 3.41665  1799.05
 3.42273  1885.54
 3.42882  1818.84
 3.43491  1838.33
 3.44099  1833.79
 3.44708  1888.62
 3.45317  1872.81
 3.45925  1846.04
 3.46534  1810.63
 3.47143  1806.82
 3.47751  1810.91
 3.4836  1789.95
 3.48969  1750.73
 3.49577  1757.51
 3.50186  1841.84
 3.50795  1759.15
 3.51403  1789.06
 3.52012  1793.34
 3.52621  1811.56
 3.5323  1792.88
 3.53838  1855.41
 3.54447  1805.66
 3.55056  1782.91
 3.55664  1760.58
 3.56273  1829.54
 3.56882  1878.26
 3.5749  1785.28
 3.58099  1842.2
 3.58708  1859.91
 3.59316  1797.15
 3.59925  1895.86
 3.60534  1858.06
 3.61142  1865.7
 3.61751  1896.82
 3.6236  1916.35
 3.62968  1943.28
 3.63577  1959.48
 3.64186  1985.45
 3.64794  2017.84
 3.65403  2007.85
 3.66012  2042.4
 3.6662  2081.42
 3.67229  2096.11
 3.67838  2146.52
 3.68446  2307.84
 3.69055  2400.54
 3.69664  2522.59
 3.70272  2721.02
 3.70881  2981.05
 3.7149  3120.91
 3.72098  3223.85
 3.72707  3324.07
 3.73316  3501.4
 3.73925  3766.81
 3.74533  4313.79
 3.75142  5239.82
 3.75751  6431.6
 3.76359  7058.56
 3.76968  6662.37
 3.77577  5541.82
 3.78185  4325.86
 3.78794  3462.74
 3.79403  2910.31
 3.80011  2610.85
 3.8062  2464.55
 3.81229  2404.77
 3.81837  2284.31
 3.82446  2210.25
 3.83055  2217.82
 3.83663  2188.09
 3.84272  2176.05
 3.84881  2128.68
 3.85489  2111.66
 3.86098  2099.87
 3.86707  2057.6
 3.87315  2047.43
 3.87924  2102.25
 3.88533  2074.32
 3.89141  2142.36
 3.8975  2141.36
 3.90359  2108.01
 3.90967  2084.16
 3.91576  2095.89
 3.92185  2101.04
 3.92794  2137.69
 3.93402  2109.17
 3.94011  2169.41
 3.9462  2141.58
 3.95228  2152.94
 3.95837  2168.42
 3.96446  2166.75
 3.97054  2175.81
 3.97663  2242.71
 3.98272  2231.56
 3.9888  2211.88
 3.99489  2248.48
 4.00098  2268.48
 4.00706  2307.12
 4.01315  2278.25
 4.01924  2300.44
 4.02532  2337.75
 4.03141  2364.25
 4.0375  2359.51
 4.04358  2368.17
 4.04967  2397.87
 4.05576  2386.36
 4.06184  2458.89
 4.06793  2498.02
 4.07402  2477.32
 4.0801  2493
 4.08619  2542.34
 4.09228  2579.77
 4.09836  2538.71
 4.10445  2613.93
 4.11054  2605.29
 4.11662  2620.74
 4.12271  2738.43
 4.1288  2724.44
 4.13489  2759.71
 4.14097  2799.1
 4.14706  2825.34
 4.15315  2860.92
 4.15923  2877.9
 4.16532  2921
 4.17141  2940.37
 4.17749  2994.45
 4.18358  3044.52
 4.18967  3041.23
 4.19575  3099.1
 4.20184  3122.68
 4.20793  3153.45
 4.21401  3215.19
 4.2201  3251.08
 4.22619  3318.99
 4.23227  3380.51
 4.23836  3374.09
 4.24445  3395.25
 4.25053  3502.76
 4.25662  3558.99
 4.26271  3544.33
 4.26879  3585.35
 4.27488  3687.71
 4.28097  3763.78
 4.28705  3798.16
 4.29314  3837.95
 4.29923  3865.28
 4.30531  3892.43
 4.3114  3948.4
 4.31749  4066.87
 4.32357  4016.71
 4.32966  4075.22
 4.33575  4121.24
 4.34183  4099.26
 4.34792  4132.7
 4.35401  4199.05
 4.3601  4236.9
 4.36618  4295.79
 4.37227  4305.89
 4.37836  4304.53
 4.38444  4274.31
 4.39053  4300.3
 4.39662  4323.01
 4.4027  4372.47
 4.40879  4343.64
 4.41488  4307.92
 4.42096  4310.74
 4.42705  4314.52
 4.43314  4310.19
 4.43922  4318.09
 4.44531  4359.95
 4.4514  4387.16
 4.45748  4462.37
 4.46357  4544.03
 4.46966  4533.98
 4.47574  4426.02
 4.48183  4354.67
 4.48792  4359.94
 4.494  4309.98
 4.50009  4383.07
 4.50618  4366.75
 4.51226  4331.32
 4.51835  4338.55
 4.52444  4370.87
 4.53052  4373.53
 4.53661  4451.77
 4.5427  4470.46
 4.54879  4525.46
 4.55487  4684.81
 4.56096  4843.99
 4.56705  5026.77
 4.57313  5207.91
 4.57922  5255.37
 4.58531  5206.87
 4.59139  5181.59
 4.59748  5011.61
 4.60357  4878.38
 4.60965  4824.88
 4.61574  4823.7
 4.62183  4789.66
 4.62791  4709.19
 4.634  4613.56
 4.64009  4469.19
 4.64617  4378.58
 4.65226  4296.06
 4.65835  4135.93
 4.66443  4076.86
 4.67052  4076.96
 4.67661  4105.31
 4.68269  4022.9
 4.68878  3964.24
 4.69487  3890.52
 4.70095  3928
 4.70704  3915
 4.71313  3872.31
 4.71921  3829.17
 4.7253  3831.77
 4.73139  3768.61
 4.73747  3752.07
 4.74356  3722.59
 4.74965  3654.15
 4.75574  3639.91
 4.76182  3630.59
 4.76791  3581.14
 4.774  3570.88
 4.78008  3569.94
 4.78617  3543.65
 4.79226  3540.36
 4.79834  3473.57
 4.80443  3442.67
 4.81052  3407.95
 4.8166  3345.85
 4.82269  3321.2
 4.82878  3288.53
 4.83486  3297.16
 4.84095  3248.17
 4.84704  3251.25
 4.85312  3256.74
 4.85921  3212
 4.8653  3246.76
 4.87138  3258.03
 4.87747  3229.9
 4.88356  3231.23
 4.88964  3133.49
 4.89573  3094.87
 4.90182  3058.77
 4.9079  3043.78
 4.91399  2973.67
 4.92008  2941.88
 4.92616  2992.57
 4.93225  2933.06
 4.93834  2896.47
 4.94443  2844.5
 4.95051  2858.01
 4.9566  2768.13
 4.96269  2775.47
 4.96877  2820.33
 4.97486  2786.16
 4.98095  2781.32
 4.98703  2726.43
 4.99312  2698.2
 4.99921  2687.68
 5.00529  2655.24
 5.01138  2673.31
 5.01747  2653.94
 5.02355  2612.22
 5.02964  2641.14
 5.03573  2613.97
 5.04181  2592.2
 5.0479  2633.77
 5.05399  2601.77
 5.06007  2533.44
 5.06616  2564.88
 5.07225  2624.59