File: 352.chi
C:\Users\geste_000\Documents\MatLab Analysis\PSU\(111) Dense\clamped files\352.t
2-Theta Angle (Degrees)
Intensity
       1500
 0.513259  975.985
 0.519346  1077.51
 0.525433  1097.2
 0.531519  982.657
 0.537606  946.317
 0.543693  1058.86
 0.54978  912.99
 0.555866  925.846
 0.561953  936.326
 0.56804  1047.39
 0.574127  943.916
 0.580213  1028.13
 0.5863  1054.26
 0.592387  931.974
 0.598474  968.291
 0.60456  1035.24
 0.610647  1052.28
 0.616734  1045.56
 0.622821  1052.27
 0.628908  959.46
 0.634994  1045.93
 0.641081  1119.74
 0.647168  1053.34
 0.653255  1063.37
 0.659341  923.089
 0.665428  859.113
 0.671515  1056.48
 0.677602  1032.7
 0.683688  998.707
 0.689775  1010.68
 0.695862  1006.08
 0.701949  1026.66
 0.708036  1051.43
 0.714122  982.743
 0.720209  1006.39
 0.726296  1061.76
 0.732383  1050.1
 0.738469  1034.39
 0.744556  902.565
 0.750643  1008.98
 0.75673  1055.56
 0.762816  1056.58
 0.768903  940.082
 0.77499  1000.71
 0.781077  992.978
 0.787164  1054.06
 0.79325  1166.75
 0.799337  1011.67
 0.805424  1034.51
 0.811511  971.899
 0.817597  1035.24
 0.823684  985.721
 0.829771  989.505
 0.835858  1092.29
 0.841944  1049.35
 0.848031  1007.26
 0.854118  1026.41
 0.860205  1002.37
 0.866291  1096.77
 0.872378  1108.19
 0.878465  1147.58
 0.884552  1057.37
 0.890639  1021.51
 0.896725  1000.89
 0.902812  1133.14
 0.908899  1071.24
 0.914986  1093.26
 0.921072  1087.08
 0.927159  1106.63
 0.933246  1069.45
 0.939333  996.33
 0.945419  1085.28
 0.951506  1070.53
 0.957593  1100.06
 0.96368  1077.27
 0.969766  1068.3
 0.975853  1041.95
 0.98194  1131.92
 0.988027  1059.05
 0.994114  1133.2
 1.0002  1072.04
 1.00629  1056.81
 1.01237  1018.16
 1.01846  1057.73
 1.02455  1093.63
 1.03063  1134.13
 1.03672  1092.63
 1.04281  1035.53
 1.04889  939.992
 1.05498  1046.49
 1.06107  1107.4
 1.06715  1134.25
 1.07324  1185.09
 1.07933  1125.07
 1.08542  1111.94
 1.0915  1194.77
 1.09759  1121.73
 1.10368  1183.59
 1.10976  1144.72
 1.11585  1112.63
 1.12194  1122.45
 1.12802  1103.32
 1.13411  1096.25
 1.1402  1056.41
 1.14628  1152.08
 1.15237  1151.32
 1.15846  1088.67
 1.16454  1078.95
 1.17063  1070.38
 1.17672  1132.3
 1.1828  1136.96
 1.18889  1139.43
 1.19498  1079.46
 1.20106  1094.22
 1.20715  1114.34
 1.21324  1122.67
 1.21932  1117.12
 1.22541  1191.32
 1.2315  1190.77
 1.23758  1125.05
 1.24367  1078.53
 1.24976  1103.75
 1.25584  1151.07
 1.26193  1166.97
 1.26802  1161.99
 1.2741  1204.9
 1.28019  1188.64
 1.28628  1205.26
 1.29237  1195.38
 1.29845  1082.19
 1.30454  1156.5
 1.31063  1230.28
 1.31671  1156.31
 1.3228  1188.07
 1.32889  1149.78
 1.33497  1159.06
 1.34106  1145.05
 1.34715  1189.32
 1.35323  1170.96
 1.35932  1161.12
 1.36541  1267.38
 1.37149  1153.89
 1.37758  1118.84
 1.38367  1188.15
 1.38975  1129.8
 1.39584  1185.69
 1.40193  1216.94
 1.40801  1215.85
 1.4141  1257.72
 1.42019  1167.14
 1.42627  1205.99
 1.43236  1225.88
 1.43845  1262.88
 1.44453  1241.83
 1.45062  1222.15
 1.45671  1187.34
 1.46279  1180.5
 1.46888  1216.55
 1.47497  1282.83
 1.48105  1146.13
 1.48714  1240.34
 1.49323  1343.56
 1.49932  1208.02
 1.5054  1298.54
 1.51149  1345.76
 1.51758  1365.83
 1.52366  1439.51
 1.52975  1464.11
 1.53584  1652.61
 1.54192  1568.26
 1.54801  1523.01
 1.5541  1310.56
 1.56018  1254.51
 1.56627  1269.85
 1.57236  1237.72
 1.57844  1219.54
 1.58453  1211.68
 1.59062  1169.56
 1.5967  1151.34
 1.60279  1181.55
 1.60888  1241.64
 1.61496  1211.15
 1.62105  1226.49
 1.62714  1232
 1.63322  1219.18
 1.63931  1150.54
 1.6454  1187.05
 1.65148  1172.54
 1.65757  1245.9
 1.66366  1176.45
 1.66974  1288.51
 1.67583  1209.36
 1.68192  1217.21
 1.688  1175.01
 1.69409  1164.8
 1.70018  1275.22
 1.70627  1217.24
 1.71235  1237.59
 1.71844  1217.7
 1.72453  1201.37
 1.73061  1143.51
 1.7367  1195.87
 1.74279  1220.56
 1.74887  1231.09
 1.75496  1199.13
 1.76105  1337.46
 1.76713  1284.81
 1.77322  1269.13
 1.77931  1189.17
 1.78539  1212.12
 1.79148  1195.46
 1.79757  1188.05
 1.80365  1210.77
 1.80974  1228.37
 1.81583  1239.36
 1.82191  1274.91
 1.828  1280.33
 1.83409  1195.91
 1.84017  1217.37
 1.84626  1249.14
 1.85235  1222.02
 1.85843  1225.1
 1.86452  1325.5
 1.87061  1238.75
 1.87669  1206.79
 1.88278  1243.47
 1.88887  1193.48
 1.89495  1224.4
 1.90104  1190.71
 1.90713  1286.71
 1.91322  1266.66
 1.9193  1275.35
 1.92539  1280.11
 1.93148  1301.48
 1.93756  1214.85
 1.94365  1307.07
 1.94974  1202.25
 1.95582  1268.05
 1.96191  1308.72
 1.968  1272.67
 1.97408  1267.25
 1.98017  1347.56
 1.98626  1310.33
 1.99234  1270.85
 1.99843  1330.95
 2.00452  1270.4
 2.0106  1282.67
 2.01669  1360.81
 2.02278  1374.93
 2.02886  1241.91
 2.03495  1337.36
 2.04104  1382.05
 2.04712  1283.03
 2.05321  1266.44
 2.0593  1344.57
 2.06538  1345.29
 2.07147  1308.73
 2.07756  1281.93
 2.08364  1322.85
 2.08973  1355.41
 2.09582  1402.46
 2.10191  1356.06
 2.10799  1362.61
 2.11408  1406.99
 2.12017  1522.03
 2.12625  1498.85
 2.13234  1583.59
 2.13843  1697.32
 2.14451  1885.26
 2.1506  2086.76
 2.15669  2152.81
 2.16277  2262.88
 2.16886  2157.22
 2.17495  2108.56
 2.18103  1963.45
 2.18712  1791.12
 2.19321  1711.49
 2.19929  1555.22
 2.20538  1488.04
 2.21147  1435.58
 2.21755  1443.69
 2.22364  1350.91
 2.22973  1422.66
 2.23581  1401.47
 2.2419  1435.31
 2.24799  1413.89
 2.25407  1400.6
 2.26016  1399.47
 2.26625  1350.52
 2.27233  1359.4
 2.27842  1371.02
 2.28451  1389.69
 2.29059  1376.45
 2.29668  1307.5
 2.30277  1373.37
 2.30886  1405.39
 2.31494  1380.31
 2.32103  1402.03
 2.32712  1491.26
 2.3332  1374.39
 2.33929  1364.29
 2.34538  1434.01
 2.35146  1478.36
 2.35755  1495.53
 2.36364  1459.42
 2.36972  1463.45
 2.37581  1447.63
 2.3819  1446.65
 2.38798  1531.8
 2.39407  1519.29
 2.40016  1510.73
 2.40624  1566.18
 2.41233  1506.53
 2.41842  1472.25
 2.4245  1497.61
 2.43059  1550.51
 2.43668  1546.5
 2.44276  1514.61
 2.44885  1559.63
 2.45494  1638.59
 2.46102  1589.51
 2.46711  1603.16
 2.4732  1643.52
 2.47928  1669.56
 2.48537  1635.41
 2.49146  1672.42
 2.49755  1624.86
 2.50363  1697.17
 2.50972  1698.32
 2.51581  1769.42
 2.52189  1786.02
 2.52798  1865.04
 2.53407  1899.28
 2.54015  1885.86
 2.54624  1982.34
 2.55233  1977.41
 2.55841  2040.68
 2.5645  2080.06
 2.57059  2184.49
 2.57667  2193.12
 2.58276  2329.37
 2.58885  2463.52
 2.59493  2664.7
 2.60102  2853.31
 2.60711  3078.7
 2.61319  3566.54
 2.61928  4300.41
 2.62537  5632.57
 2.63145  8521.16
 2.63754  15075.9
 2.64363  27760.7
 2.64971  40616
 2.6558  40269.6
 2.66189  27764
 2.66797  16215.3
 2.67406  10304.2
 2.68015  8236.49
 2.68623  7777.56
 2.69232  8357.92
 2.69841  9715.21
 2.7045  12526.2
 2.71058  18761.5
 2.71667  37021.1
 2.72276  102989
 2.72884  237253
 2.73493  265535
 2.74102  134063
 2.7471  49097.8
 2.75319  22050.7
 2.75928  13193.9
 2.76536  9476.41
 2.77145  7367.95
 2.77754  6127.85
 2.78362  5312.51
 2.78971  4608.59
 2.7958  4096.5
 2.80188  3713
 2.80797  3335.54
 2.81406  3150.83
 2.82014  2974.86
 2.82623  2747.42
 2.83232  2613.47
 2.8384  2496.61
 2.84449  2421.1
 2.85058  2297.07
 2.85666  2231.44
 2.86275  2197.86
 2.86884  2121.06
 2.87492  2073.29
 2.88101  1991.37
 2.8871  2030.48
 2.89318  1935.61
 2.89927  1919.13
 2.90536  1892.79
 2.91144  1871.02
 2.91753  1849.8
 2.92362  1785.14
 2.92971  1778.19
 2.93579  1786.77
 2.94188  1760.91
 2.94797  1793.8
 2.95405  1731.97
 2.96014  1774.93
 2.96623  1784.78
 2.97231  1782.62
 2.9784  1745.11
 2.98449  1730.89
 2.99057  1768.72
 2.99666  1828.6
 3.00275  1758.12
 3.00883  1729.35
 3.01492  1775.03
 3.02101  1699.17
 3.02709  1746.99
 3.03318  1792.82
 3.03927  1794.97
 3.04535  1847.18
 3.05144  1834.07
 3.05753  1827.65
 3.06361  1922.61
 3.0697  1911.7
 3.07579  1993.2
 3.08187  2085.05
 3.08796  2233.65
 3.09405  2162.9
 3.10013  1885.6
 3.10622  1821.47
 3.11231  1776.89
 3.1184  1765.5
 3.12448  1763.07
 3.13057  1792.62
 3.13666  1807.33
 3.14274  1898.05
 3.14883  2083.11
 3.15492  2108.31
 3.161  2026.12
 3.16709  1907.63
 3.17318  1791.58
 3.17926  1756.53
 3.18535  1738.57
 3.19144  1715.7
 3.19752  1711.02
 3.20361  1712.76
 3.2097  1724.65
 3.21578  1671.68
 3.22187  1692.44
 3.22796  1630.05
 3.23404  1727.81
 3.24013  1725.8
 3.24622  1705.99
 3.2523  1665.48
 3.25839  1726.61
 3.26448  1772.93
 3.27056  1733.18
 3.27665  1740.74
 3.28274  1678.88
 3.28882  1729.59
 3.29491  1693.66
 3.301  1686.54
 3.30708  1702.09
 3.31317  1690.92
 3.31926  1694.22
 3.32534  1759.38
 3.33143  1729.95
 3.33752  1707.36
 3.34361  1769.18
 3.34969  1746.28
 3.35578  1738.19
 3.36187  1720.17
 3.36795  1754.35
 3.37404  1772.5
 3.38013  1748.95
 3.38621  1733.84
 3.3923  1751.51
 3.39839  1736.7
 3.40447  1780.45
 3.41056  1831.16
 3.41665  1774.14
 3.42273  1782.65
 3.42882  1856.36
 3.43491  1813.33
 3.44099  1829.3
 3.44708  1898.12
 3.45317  1849.45
 3.45925  1829.97
 3.46534  1806.96
 3.47143  1827.12
 3.47751  1848.66
 3.4836  1777.25
 3.48969  1765.22
 3.49577  1779.99
 3.50186  1749.77
 3.50795  1798.71
 3.51403  1792.38
 3.52012  1824.39
 3.52621  1775.61
 3.5323  1809.31
 3.53838  1796.49
 3.54447  1819.92
 3.55056  1832.75
 3.55664  1863.87
 3.56273  1807.46
 3.56882  1833.77
 3.5749  1839.1
 3.58099  1837.08
 3.58708  1844.16
 3.59316  1834.66
 3.59925  1827.01
 3.60534  1860.06
 3.61142  1888.18
 3.61751  1924.42
 3.6236  1890.34
 3.62968  1905.45
 3.63577  1944.85
 3.64186  1908.55
 3.64794  1972.2
 3.65403  2012.41
 3.66012  2030.36
 3.6662  2061.1
 3.67229  2096.02
 3.67838  2158.47
 3.68446  2226.44
 3.69055  2416.32
 3.69664  2614.94
 3.70272  2785.14
 3.70881  2975.57
 3.7149  3144.62
 3.72098  3258.61
 3.72707  3376.68
 3.73316  3537.15
 3.73925  3740.92
 3.74533  4265.78
 3.75142  5220.62
 3.75751  6425.77
 3.76359  7064.44
 3.76968  6692.59
 3.77577  5565.73
 3.78185  4295.9
 3.78794  3475.05
 3.79403  2911.18
 3.80011  2601.62
 3.8062  2449.53
 3.81229  2386.6
 3.81837  2269.15
 3.82446  2258.17
 3.83055  2238.12
 3.83663  2179.05
 3.84272  2156.61
 3.84881  2122.16
 3.85489  2093.61
 3.86098  2126.47
 3.86707  2137.12
 3.87315  2090.71
 3.87924  2142.5
 3.88533  2116.95
 3.89141  2081.15
 3.8975  2120.96
 3.90359  2126.26
 3.90967  2110.5
 3.91576  2100.03
 3.92185  2118.79
 3.92794  2091.43
 3.93402  2095.14
 3.94011  2128.2
 3.9462  2182.21
 3.95228  2181.72
 3.95837  2175.07
 3.96446  2185.15
 3.97054  2193.69
 3.97663  2219.47
 3.98272  2213.74
 3.9888  2276.1
 3.99489  2207.23
 4.00098  2231.23
 4.00706  2257.4
 4.01315  2284.67
 4.01924  2286.05
 4.02532  2331.42
 4.03141  2359.86
 4.0375  2398.66
 4.04358  2371.22
 4.04967  2345.34
 4.05576  2391.45
 4.06184  2467.21
 4.06793  2435.75
 4.07402  2455.74
 4.0801  2534.9
 4.08619  2506.69
 4.09228  2572.88
 4.09836  2598.22
 4.10445  2576.52
 4.11054  2588.2
 4.11662  2653.2
 4.12271  2660.52
 4.1288  2743.09
 4.13489  2748.05
 4.14097  2819.52
 4.14706  2854.55
 4.15315  2864.37
 4.15923  2840.34
 4.16532  2922.34
 4.17141  2928.17
 4.17749  3006.3
 4.18358  3067.4
 4.18967  3062
 4.19575  3056.4
 4.20184  3136.21
 4.20793  3202.59
 4.21401  3217.27
 4.2201  3201.13
 4.22619  3289.59
 4.23227  3342.46
 4.23836  3321.52
 4.24445  3403.34
 4.25053  3458.27
 4.25662  3533.6
 4.26271  3608.57
 4.26879  3590.93
 4.27488  3594.99
 4.28097  3725.25
 4.28705  3763.64
 4.29314  3825.51
 4.29923  3883.66
 4.30531  3930.5
 4.3114  3970.67
 4.31749  4042.77
 4.32357  4069.64
 4.32966  4061.44
 4.33575  4045.38
 4.34183  4075.97
 4.34792  4113.09
 4.35401  4131.31
 4.3601  4171.36
 4.36618  4233.21
 4.37227  4273.81
 4.37836  4300.94
 4.38444  4290.08
 4.39053  4285.03
 4.39662  4268.17
 4.4027  4271.8
 4.40879  4323.39
 4.41488  4298.12
 4.42096  4295.65
 4.42705  4280.49
 4.43314  4384.56
 4.43922  4416.78
 4.44531  4391.8
 4.4514  4456.35
 4.45748  4499.32
 4.46357  4510.49
 4.46966  4535.16
 4.47574  4415.43
 4.48183  4389.56
 4.48792  4377.74
 4.494  4351.06
 4.50009  4370.35
 4.50618  4381.38
 4.51226  4317.01
 4.51835  4314.35
 4.52444  4348.97
 4.53052  4413.96
 4.53661  4342.99
 4.5427  4419.18
 4.54879  4556.05
 4.55487  4699.58
 4.56096  4867.13
 4.56705  5023.85
 4.57313  5096.04
 4.57922  5175.62
 4.58531  5146.48
 4.59139  5091.17
 4.59748  4924.83
 4.60357  4844.57
 4.60965  4800.39
 4.61574  4834.37
 4.62183  4800.09
 4.62791  4693.65
 4.634  4536.68
 4.64009  4437.87
 4.64617  4345.38
 4.65226  4246.01
 4.65835  4119.81
 4.66443  4063.44
 4.67052  4057.46
 4.67661  4008.61
 4.68269  3941.97
 4.68878  3935.4
 4.69487  3892.71
 4.70095  3949.02
 4.70704  3851.6
 4.71313  3889.72
 4.71921  3822.92
 4.7253  3755.8
 4.73139  3719.84
 4.73747  3715.12
 4.74356  3702.12
 4.74965  3672.65
 4.75574  3669.45
 4.76182  3615.37
 4.76791  3606.85
 4.774  3542.96
 4.78008  3514.07
 4.78617  3463.94
 4.79226  3443.35
 4.79834  3430.93
 4.80443  3416.61
 4.81052  3338.07
 4.8166  3332.16
 4.82269  3329.24
 4.82878  3324.64
 4.83486  3264.88
 4.84095  3244.93
 4.84704  3243.41
 4.85312  3250.67
 4.85921  3234.56
 4.8653  3240.82
 4.87138  3250.32
 4.87747  3216.82
 4.88356  3191.12
 4.88964  3179.47
 4.89573  3147.05
 4.90182  3060.2
 4.9079  3009.85
 4.91399  2976.71
 4.92008  3000.35
 4.92616  2972.33
 4.93225  2936.89
 4.93834  2859.97
 4.94443  2843.83
 4.95051  2845.35
 4.9566  2802.76
 4.96269  2796.14
 4.96877  2753.88
 4.97486  2724.41
 4.98095  2736.03
 4.98703  2715.23
 4.99312  2732.92
 4.99921  2725.85
 5.00529  2717.21
 5.01138  2696.33
 5.01747  2706.59
 5.02355  2684.8
 5.02964  2655.08
 5.03573  2616.91
 5.04181  2598.36
 5.0479  2624.81
 5.05399  2583.59
 5.06007  2548.55
 5.06616  2599.11
 5.07225  2602.56