File: 353.chi
C:\Users\geste_000\Documents\MatLab Analysis\PSU\(111) Dense\clamped files\353.t
2-Theta Angle (Degrees)
Intensity
       1500
 0.513259  1127.71
 0.519346  1006.11
 0.525433  1005.1
 0.531519  960.148
 0.537606  909.249
 0.543693  1061.07
 0.54978  891.723
 0.555866  1069.72
 0.561953  987.092
 0.56804  948.93
 0.574127  1001.93
 0.580213  1026.88
 0.5863  990.083
 0.592387  977.554
 0.598474  1115.29
 0.60456  968.08
 0.610647  1049.6
 0.616734  956.096
 0.622821  1056.4
 0.628908  1075.32
 0.634994  1079.05
 0.641081  1108.87
 0.647168  1052.3
 0.653255  1076.97
 0.659341  1032.23
 0.665428  1079.53
 0.671515  1071.59
 0.677602  1122.69
 0.683688  1083.15
 0.689775  1114.63
 0.695862  964.562
 0.701949  1099.39
 0.708036  1008.23
 0.714122  1053.53
 0.720209  1058.58
 0.726296  1093.55
 0.732383  1030.64
 0.738469  1097.79
 0.744556  1040.46
 0.750643  978.461
 0.75673  1072.41
 0.762816  1020.57
 0.768903  1078.66
 0.77499  1021.28
 0.781077  1159.12
 0.787164  1110.56
 0.79325  984.468
 0.799337  1016.1
 0.805424  917.901
 0.811511  951.772
 0.817597  967.969
 0.823684  1064.66
 0.829771  1033.86
 0.835858  913.056
 0.841944  1032.84
 0.848031  981.901
 0.854118  1024
 0.860205  1114.96
 0.866291  993.039
 0.872378  1063.78
 0.878465  1051.21
 0.884552  988.62
 0.890639  1060.36
 0.896725  1076.52
 0.902812  1078.13
 0.908899  1130.84
 0.914986  992.944
 0.921072  1069.97
 0.927159  1036.62
 0.933246  1016.45
 0.939333  1085.39
 0.945419  1039.49
 0.951506  1024.61
 0.957593  988.609
 0.96368  1052.46
 0.969766  1096.89
 0.975853  1061.55
 0.98194  1183.37
 0.988027  945.83
 0.994114  1136.6
 1.0002  1064.55
 1.00629  956.454
 1.01237  1045.76
 1.01846  1124.35
 1.02455  1031.2
 1.03063  1162.77
 1.03672  1211.91
 1.04281  1143.52
 1.04889  1076.89
 1.05498  1078.83
 1.06107  1152.5
 1.06715  1092.48
 1.07324  1109.71
 1.07933  1110.27
 1.08542  1141.97
 1.0915  1081.61
 1.09759  1143.19
 1.10368  1068.72
 1.10976  1077.82
 1.11585  1038.15
 1.12194  1135.35
 1.12802  1120.67
 1.13411  1206.45
 1.1402  1093.01
 1.14628  1083.55
 1.15237  1129.02
 1.15846  1112.92
 1.16454  1088.5
 1.17063  1154.92
 1.17672  1147
 1.1828  1114.23
 1.18889  1120.36
 1.19498  1040.54
 1.20106  1135.86
 1.20715  1108.94
 1.21324  1177.59
 1.21932  1171.81
 1.22541  1198.56
 1.2315  1140.65
 1.23758  1146.84
 1.24367  1114.67
 1.24976  1120.55
 1.25584  1133.27
 1.26193  1063.94
 1.26802  1084.39
 1.2741  1126.54
 1.28019  1129.11
 1.28628  1126.02
 1.29237  1147.16
 1.29845  1168.21
 1.30454  1133.1
 1.31063  1150.21
 1.31671  1095.35
 1.3228  1214.93
 1.32889  1176.18
 1.33497  1213.81
 1.34106  1136.12
 1.34715  1122.4
 1.35323  1150.29
 1.35932  1131.5
 1.36541  1125.97
 1.37149  1080.84
 1.37758  1154.85
 1.38367  1186.26
 1.38975  1162.98
 1.39584  1168.88
 1.40193  1174.01
 1.40801  1097.02
 1.4141  1129.83
 1.42019  1196.8
 1.42627  1186.93
 1.43236  1129.85
 1.43845  1178.03
 1.44453  1147.92
 1.45062  1194.17
 1.45671  1201.68
 1.46279  1207.14
 1.46888  1186.37
 1.47497  1237.5
 1.48105  1190.11
 1.48714  1277.08
 1.49323  1248.82
 1.49932  1245.66
 1.5054  1329.13
 1.51149  1381.22
 1.51758  1417.3
 1.52366  1468.72
 1.52975  1533.21
 1.53584  1599.66
 1.54192  1568.76
 1.54801  1434.2
 1.5541  1350.27
 1.56018  1246.49
 1.56627  1253.94
 1.57236  1261.3
 1.57844  1227.53
 1.58453  1147.22
 1.59062  1219.18
 1.5967  1172.44
 1.60279  1158.79
 1.60888  1199.07
 1.61496  1179.9
 1.62105  1206.38
 1.62714  1244.1
 1.63322  1166.5
 1.63931  1215.88
 1.6454  1236.93
 1.65148  1225.1
 1.65757  1166.4
 1.66366  1198.53
 1.66974  1283.22
 1.67583  1188.02
 1.68192  1210.55
 1.688  1188.22
 1.69409  1139.87
 1.70018  1208.82
 1.70627  1219.61
 1.71235  1191.42
 1.71844  1219.91
 1.72453  1202.98
 1.73061  1210.22
 1.7367  1152.71
 1.74279  1232.09
 1.74887  1369.59
 1.75496  1253.21
 1.76105  1271.71
 1.76713  1239.64
 1.77322  1180.18
 1.77931  1226.42
 1.78539  1267.78
 1.79148  1267.74
 1.79757  1241.89
 1.80365  1205.78
 1.80974  1295.35
 1.81583  1234.08
 1.82191  1162.9
 1.828  1240.24
 1.83409  1314.53
 1.84017  1219.29
 1.84626  1237.89
 1.85235  1342.72
 1.85843  1233.79
 1.86452  1317.91
 1.87061  1288.4
 1.87669  1309.47
 1.88278  1255.49
 1.88887  1209.41
 1.89495  1401.67
 1.90104  1313.09
 1.90713  1212.43
 1.91322  1201.29
 1.9193  1274.55
 1.92539  1238.78
 1.93148  1238.01
 1.93756  1195.98
 1.94365  1203.75
 1.94974  1289.22
 1.95582  1289.26
 1.96191  1270.71
 1.968  1342.37
 1.97408  1215.51
 1.98017  1251.44
 1.98626  1281.64
 1.99234  1219.14
 1.99843  1246.68
 2.00452  1316.02
 2.0106  1313.32
 2.01669  1315.16
 2.02278  1351
 2.02886  1317.42
 2.03495  1313.19
 2.04104  1299.67
 2.04712  1267.24
 2.05321  1307.11
 2.0593  1299.2
 2.06538  1300.28
 2.07147  1286.52
 2.07756  1322.12
 2.08364  1305
 2.08973  1320.12
 2.09582  1349.53
 2.10191  1318.02
 2.10799  1343.52
 2.11408  1401.29
 2.12017  1373.16
 2.12625  1391.74
 2.13234  1539.68
 2.13843  1644.31
 2.14451  1818.99
 2.1506  2080.52
 2.15669  2185.83
 2.16277  2148.75
 2.16886  2156.3
 2.17495  2116.41
 2.18103  2021.84
 2.18712  1824.5
 2.19321  1697.52
 2.19929  1551.49
 2.20538  1466.79
 2.21147  1365.03
 2.21755  1381.66
 2.22364  1419.37
 2.22973  1393.21
 2.23581  1321.97
 2.2419  1367.46
 2.24799  1438.85
 2.25407  1335.38
 2.26016  1370.88
 2.26625  1354.33
 2.27233  1340.94
 2.27842  1363.86
 2.28451  1378.86
 2.29059  1419.99
 2.29668  1448.12
 2.30277  1409.5
 2.30886  1397.35
 2.31494  1420.17
 2.32103  1406.04
 2.32712  1451.81
 2.3332  1383.83
 2.33929  1325.91
 2.34538  1430.35
 2.35146  1411.91
 2.35755  1370.31
 2.36364  1394.17
 2.36972  1424.86
 2.37581  1402.43
 2.3819  1507.46
 2.38798  1493.87
 2.39407  1489.33
 2.40016  1501.78
 2.40624  1533.82
 2.41233  1509.26
 2.41842  1508.8
 2.4245  1524.16
 2.43059  1535.19
 2.43668  1601.46
 2.44276  1526.16
 2.44885  1571.76
 2.45494  1553.83
 2.46102  1586.25
 2.46711  1579.93
 2.4732  1549.09
 2.47928  1568.94
 2.48537  1575.24
 2.49146  1574.99
 2.49755  1672.26
 2.50363  1696.58
 2.50972  1760.41
 2.51581  1745.94
 2.52189  1766.14
 2.52798  1814.13
 2.53407  1866.47
 2.54015  1888
 2.54624  1890.1
 2.55233  1941.2
 2.55841  2057.3
 2.5645  2131.55
 2.57059  2145.54
 2.57667  2234.75
 2.58276  2371.32
 2.58885  2459.53
 2.59493  2591.96
 2.60102  2803.58
 2.60711  3145.96
 2.61319  3588.27
 2.61928  4320.73
 2.62537  5647.64
 2.63145  8574.46
 2.63754  15172.5
 2.64363  27905.4
 2.64971  40666.5
 2.6558  40082.3
 2.66189  27472.2
 2.66797  15929.1
 2.67406  10249.1
 2.68015  8246.11
 2.68623  7896.76
 2.69232  8336.37
 2.69841  9697.51
 2.7045  12456.7
 2.71058  18682
 2.71667  36850.5
 2.72276  102929
 2.72884  237403
 2.73493  265157
 2.74102  133465
 2.7471  48862.7
 2.75319  21964.7
 2.75928  13256.7
 2.76536  9419.7
 2.77145  7440.29
 2.77754  6239.21
 2.78362  5264.59
 2.78971  4606.25
 2.7958  4033.83
 2.80188  3659.58
 2.80797  3378.41
 2.81406  3145.88
 2.82014  2916.8
 2.82623  2770.13
 2.83232  2564.1
 2.8384  2454.72
 2.84449  2359.53
 2.85058  2300.09
 2.85666  2207.71
 2.86275  2128.29
 2.86884  2103.87
 2.87492  2060.18
 2.88101  2027.07
 2.8871  1988.88
 2.89318  1930.72
 2.89927  1898.93
 2.90536  1854.53
 2.91144  1813.12
 2.91753  1824.02
 2.92362  1854.76
 2.92971  1818.85
 2.93579  1832.29
 2.94188  1781.79
 2.94797  1706.38
 2.95405  1807.38
 2.96014  1796.02
 2.96623  1746.9
 2.97231  1790.6
 2.9784  1788.31
 2.98449  1815.01
 2.99057  1797.83
 2.99666  1766.4
 3.00275  1747.08
 3.00883  1768.97
 3.01492  1795.1
 3.02101  1787.91
 3.02709  1789.15
 3.03318  1728.57
 3.03927  1797.5
 3.04535  1849.66
 3.05144  1818.51
 3.05753  1813.53
 3.06361  1871.81
 3.0697  1931.3
 3.07579  1977.22
 3.08187  2120.24
 3.08796  2183.2
 3.09405  2020.43
 3.10013  1874.25
 3.10622  1840.86
 3.11231  1771.36
 3.1184  1703.12
 3.12448  1722.16
 3.13057  1765.97
 3.13666  1813.4
 3.14274  1869.79
 3.14883  2042.85
 3.15492  2106.11
 3.161  2074.85
 3.16709  1926.76
 3.17318  1831.64
 3.17926  1735.45
 3.18535  1710.54
 3.19144  1701.91
 3.19752  1661.27
 3.20361  1655.04
 3.2097  1749.28
 3.21578  1703.42
 3.22187  1653.46
 3.22796  1719.91
 3.23404  1730.5
 3.24013  1680.96
 3.24622  1721.36
 3.2523  1719.79
 3.25839  1702.25
 3.26448  1693.05
 3.27056  1704.72
 3.27665  1690.61
 3.28274  1670.47
 3.28882  1729.88
 3.29491  1747.46
 3.301  1702.04
 3.30708  1673.86
 3.31317  1692.88
 3.31926  1656.57
 3.32534  1712.73
 3.33143  1746.14
 3.33752  1774.2
 3.34361  1741.47
 3.34969  1745.51
 3.35578  1769.09
 3.36187  1720.84
 3.36795  1685
 3.37404  1714.7
 3.38013  1745.87
 3.38621  1750.18
 3.3923  1771.43
 3.39839  1746.07
 3.40447  1777.74
 3.41056  1758.78
 3.41665  1745.25
 3.42273  1818.75
 3.42882  1817.95
 3.43491  1836.59
 3.44099  1814.48
 3.44708  1790.7
 3.45317  1802.2
 3.45925  1821.35
 3.46534  1769.19
 3.47143  1813.64
 3.47751  1771.1
 3.4836  1819.39
 3.48969  1790.17
 3.49577  1802.18
 3.50186  1786.3
 3.50795  1763.71
 3.51403  1764.09
 3.52012  1755.69
 3.52621  1800.57
 3.5323  1828.55
 3.53838  1805.95
 3.54447  1814.11
 3.55056  1774.91
 3.55664  1778.26
 3.56273  1819.02
 3.56882  1802.18
 3.5749  1781.85
 3.58099  1862.31
 3.58708  1863.03
 3.59316  1861.99
 3.59925  1851.46
 3.60534  1854.49
 3.61142  1840.8
 3.61751  1862.21
 3.6236  1875.4
 3.62968  1910.56
 3.63577  1895.68
 3.64186  1973.9
 3.64794  1984.88
 3.65403  2020.45
 3.66012  1981.53
 3.6662  2061.6
 3.67229  2071.3
 3.67838  2138.28
 3.68446  2287.75
 3.69055  2371.99
 3.69664  2565.38
 3.70272  2848.76
 3.70881  2994.11
 3.7149  3164.38
 3.72098  3311.47
 3.72707  3400.93
 3.73316  3462.95
 3.73925  3704.88
 3.74533  4208.63
 3.75142  5105.12
 3.75751  6266.03
 3.76359  6897.51
 3.76968  6700.35
 3.77577  5562.17
 3.78185  4280.25
 3.78794  3420.96
 3.79403  2859.93
 3.80011  2589.15
 3.8062  2425.74
 3.81229  2343.08
 3.81837  2250.81
 3.82446  2227.45
 3.83055  2216.5
 3.83663  2201.76
 3.84272  2183.89
 3.84881  2159.99
 3.85489  2135.78
 3.86098  2101.67
 3.86707  2082
 3.87315  2019.35
 3.87924  2065.65
 3.88533  2074.17
 3.89141  2077.89
 3.8975  2085.18
 3.90359  2103.83
 3.90967  2105.28
 3.91576  2098.38
 3.92185  2077.41
 3.92794  2097.14
 3.93402  2123.47
 3.94011  2096.13
 3.9462  2115.01
 3.95228  2150.22
 3.95837  2187.91
 3.96446  2214.69
 3.97054  2195.25
 3.97663  2172.17
 3.98272  2215.92
 3.9888  2242.52
 3.99489  2222.51
 4.00098  2244.7
 4.00706  2288.55
 4.01315  2309.2
 4.01924  2303.1
 4.02532  2296.6
 4.03141  2312.15
 4.0375  2344.44
 4.04358  2350.42
 4.04967  2391.01
 4.05576  2390.84
 4.06184  2415.81
 4.06793  2408.74
 4.07402  2442.09
 4.0801  2473.6
 4.08619  2558.76
 4.09228  2539.51
 4.09836  2601.59
 4.10445  2595.59
 4.11054  2620.06
 4.11662  2639.43
 4.12271  2619.75
 4.1288  2691.61
 4.13489  2706.35
 4.14097  2752.71
 4.14706  2801.14
 4.15315  2853.97
 4.15923  2823.29
 4.16532  2947.68
 4.17141  2924.99
 4.17749  2968.46
 4.18358  3008.81
 4.18967  2982.39
 4.19575  3068.7
 4.20184  3105.04
 4.20793  3160.55
 4.21401  3236.71
 4.2201  3277.58
 4.22619  3291.79
 4.23227  3294.33
 4.23836  3363.5
 4.24445  3363.7
 4.25053  3436.19
 4.25662  3483.65
 4.26271  3524.88
 4.26879  3538.14
 4.27488  3633.23
 4.28097  3703.82
 4.28705  3746.53
 4.29314  3807.77
 4.29923  3865.72
 4.30531  3850.24
 4.3114  3933.78
 4.31749  3985.87
 4.32357  3997.53
 4.32966  4007.82
 4.33575  4064.79
 4.34183  4083.05
 4.34792  4123.84
 4.35401  4143.52
 4.3601  4156.67
 4.36618  4214.05
 4.37227  4247.6
 4.37836  4277.93
 4.38444  4260.76
 4.39053  4210.12
 4.39662  4252.49
 4.4027  4313.64
 4.40879  4338.93
 4.41488  4334.17
 4.42096  4280.02
 4.42705  4314.53
 4.43314  4354.87
 4.43922  4388.15
 4.44531  4394.23
 4.4514  4388.7
 4.45748  4475.29
 4.46357  4504.16
 4.46966  4493.17
 4.47574  4408.79
 4.48183  4369.36
 4.48792  4322.77
 4.494  4327.97
 4.50009  4313.62
 4.50618  4331.55
 4.51226  4318.84
 4.51835  4341.75
 4.52444  4340.97
 4.53052  4424.89
 4.53661  4421.61
 4.5427  4461.61
 4.54879  4524.11
 4.55487  4637.18
 4.56096  4830.44
 4.56705  5012.53
 4.57313  5136.55
 4.57922  5223.63
 4.58531  5221.75
 4.59139  5156.91
 4.59748  4953.42
 4.60357  4887.41
 4.60965  4808.16
 4.61574  4791.2
 4.62183  4773.9
 4.62791  4655.45
 4.634  4614.45
 4.64009  4458.59
 4.64617  4386.89
 4.65226  4225.66
 4.65835  4108.64
 4.66443  4091.4
 4.67052  4013.22
 4.67661  4002.26
 4.68269  3968.65
 4.68878  3968
 4.69487  3846.29
 4.70095  3847.91
 4.70704  3892.66
 4.71313  3880.89
 4.71921  3815.03
 4.7253  3775.64
 4.73139  3752.48
 4.73747  3730.53
 4.74356  3702.72
 4.74965  3660.51
 4.75574  3600.39
 4.76182  3575.13
 4.76791  3570.88
 4.774  3506.64
 4.78008  3458.22
 4.78617  3472.55
 4.79226  3444.82
 4.79834  3415
 4.80443  3376.78
 4.81052  3357.39
 4.8166  3316.48
 4.82269  3333.23
 4.82878  3312.1
 4.83486  3299.26
 4.84095  3234.15
 4.84704  3187.18
 4.85312  3190.17
 4.85921  3202.74
 4.8653  3208.65
 4.87138  3167.28
 4.87747  3224.63
 4.88356  3231.84
 4.88964  3167.13
 4.89573  3115.67
 4.90182  3037.31
 4.9079  3049.15
 4.91399  2997.67
 4.92008  2973.32
 4.92616  2924.53
 4.93225  2878.53
 4.93834  2886.13
 4.94443  2793.77
 4.95051  2805.89
 4.9566  2788.6
 4.96269  2810.42
 4.96877  2805.28
 4.97486  2742.98
 4.98095  2738.43
 4.98703  2722.75
 4.99312  2717.94
 4.99921  2689.06
 5.00529  2705.67
 5.01138  2667.08
 5.01747  2644.67
 5.02355  2630.14
 5.02964  2675.43
 5.03573  2626.38
 5.04181  2590.7
 5.0479  2550.5
 5.05399  2527.19
 5.06007  2571.23
 5.06616  2547.33
 5.07225  2560.53