File: 354.chi
C:\Users\geste_000\Documents\MatLab Analysis\PSU\(111) Dense\clamped files\354.t
2-Theta Angle (Degrees)
Intensity
       1500
 0.513259  891.697
 0.519346  1034.96
 0.525433  1071.5
 0.531519  1052.68
 0.537606  1035.77
 0.543693  1003.25
 0.54978  1039.48
 0.555866  964.331
 0.561953  1047.79
 0.56804  1069.21
 0.574127  1064.23
 0.580213  1006.07
 0.5863  1059.82
 0.592387  972.662
 0.598474  979.953
 0.60456  949.557
 0.610647  1008.83
 0.616734  1049.9
 0.622821  937.962
 0.628908  1098.66
 0.634994  1099.98
 0.641081  909.164
 0.647168  978.775
 0.653255  929.686
 0.659341  953.816
 0.665428  975.11
 0.671515  983.227
 0.677602  961.506
 0.683688  933.689
 0.689775  971.877
 0.695862  997.092
 0.701949  973.202
 0.708036  967.873
 0.714122  1033.23
 0.720209  1081.83
 0.726296  1013.13
 0.732383  1084.49
 0.738469  983.649
 0.744556  1034.98
 0.750643  1048.89
 0.75673  1076.84
 0.762816  1041.74
 0.768903  1003.36
 0.77499  1000.93
 0.781077  1030.42
 0.787164  975.036
 0.79325  1115.78
 0.799337  1087.6
 0.805424  1070.62
 0.811511  1112.87
 0.817597  1003.39
 0.823684  1114.38
 0.829771  1116.22
 0.835858  1059.08
 0.841944  1049.44
 0.848031  1039.13
 0.854118  1008.95
 0.860205  982.763
 0.866291  936.399
 0.872378  1013.64
 0.878465  1006.43
 0.884552  966.802
 0.890639  985.993
 0.896725  1097.67
 0.902812  1029.8
 0.908899  1001.88
 0.914986  1097.35
 0.921072  1030.08
 0.927159  994.914
 0.933246  1009.41
 0.939333  1081.19
 0.945419  1025.62
 0.951506  1099.51
 0.957593  1008.04
 0.96368  1117.27
 0.969766  951.812
 0.975853  967.904
 0.98194  1004.8
 0.988027  1026.77
 0.994114  1077.44
 1.0002  1060.78
 1.00629  1128.1
 1.01237  1046.19
 1.01846  1029.03
 1.02455  1166
 1.03063  1109.1
 1.03672  1119.92
 1.04281  1115.39
 1.04889  1132.6
 1.05498  1140.92
 1.06107  1088.03
 1.06715  1061.5
 1.07324  1105.62
 1.07933  1104.99
 1.08542  1079.27
 1.0915  1153.3
 1.09759  1063.19
 1.10368  1106.48
 1.10976  1020.73
 1.11585  1085
 1.12194  1123.86
 1.12802  1136.58
 1.13411  1123.66
 1.1402  1158.84
 1.14628  1056.08
 1.15237  1124.87
 1.15846  1139.88
 1.16454  1133.65
 1.17063  1151.27
 1.17672  1178.6
 1.1828  1166.29
 1.18889  1146.99
 1.19498  1129.82
 1.20106  1126.62
 1.20715  1082.25
 1.21324  1136.16
 1.21932  1107.64
 1.22541  1151.72
 1.2315  1088.36
 1.23758  1063.49
 1.24367  1097.3
 1.24976  1128.68
 1.25584  1079.78
 1.26193  1206.27
 1.26802  1099.23
 1.2741  1199.83
 1.28019  1070.91
 1.28628  1108.32
 1.29237  1113.01
 1.29845  1135.56
 1.30454  1170.59
 1.31063  1156.32
 1.31671  1135.85
 1.3228  1160.54
 1.32889  1062.49
 1.33497  1108.67
 1.34106  1118.78
 1.34715  1208.32
 1.35323  1203.63
 1.35932  1124.59
 1.36541  1127.91
 1.37149  1175.7
 1.37758  1185.24
 1.38367  1133.91
 1.38975  1209.27
 1.39584  1201.53
 1.40193  1202.01
 1.40801  1153
 1.4141  1208.57
 1.42019  1151.39
 1.42627  1215.56
 1.43236  1252.11
 1.43845  1218.86
 1.44453  1256.8
 1.45062  1229.54
 1.45671  1154.43
 1.46279  1121.19
 1.46888  1227.89
 1.47497  1231.27
 1.48105  1251.68
 1.48714  1303.85
 1.49323  1302.09
 1.49932  1258.58
 1.5054  1283.59
 1.51149  1326.34
 1.51758  1343.14
 1.52366  1425.62
 1.52975  1517.62
 1.53584  1657.48
 1.54192  1619.35
 1.54801  1466.5
 1.5541  1313.83
 1.56018  1276.38
 1.56627  1222.72
 1.57236  1213.85
 1.57844  1254.82
 1.58453  1255.41
 1.59062  1234.9
 1.5967  1260.49
 1.60279  1166.28
 1.60888  1195.16
 1.61496  1177.62
 1.62105  1149.8
 1.62714  1192.84
 1.63322  1137.15
 1.63931  1206.66
 1.6454  1248.51
 1.65148  1189.34
 1.65757  1212.42
 1.66366  1176.91
 1.66974  1212.29
 1.67583  1219.92
 1.68192  1124.61
 1.688  1236.04
 1.69409  1249.44
 1.70018  1250.11
 1.70627  1166.89
 1.71235  1237.54
 1.71844  1343.22
 1.72453  1296.72
 1.73061  1229.46
 1.7367  1244.51
 1.74279  1262.49
 1.74887  1233.79
 1.75496  1248.42
 1.76105  1204.21
 1.76713  1171.46
 1.77322  1252.15
 1.77931  1236.8
 1.78539  1201.77
 1.79148  1263.8
 1.79757  1200.38
 1.80365  1245.79
 1.80974  1268.12
 1.81583  1121.8
 1.82191  1250.33
 1.828  1297.74
 1.83409  1215.78
 1.84017  1294.12
 1.84626  1246.25
 1.85235  1259.17
 1.85843  1223.1
 1.86452  1290.58
 1.87061  1284.13
 1.87669  1310.91
 1.88278  1315.01
 1.88887  1244.6
 1.89495  1200.85
 1.90104  1197.92
 1.90713  1220.9
 1.91322  1290.63
 1.9193  1360.11
 1.92539  1326.24
 1.93148  1292
 1.93756  1241.75
 1.94365  1317.11
 1.94974  1250.76
 1.95582  1261.92
 1.96191  1300.3
 1.968  1250.2
 1.97408  1291.66
 1.98017  1269
 1.98626  1243.12
 1.99234  1301.49
 1.99843  1254.68
 2.00452  1401.98
 2.0106  1286.06
 2.01669  1298.89
 2.02278  1298.39
 2.02886  1333.02
 2.03495  1343.56
 2.04104  1297.41
 2.04712  1350.01
 2.05321  1288.91
 2.0593  1297.97
 2.06538  1280.85
 2.07147  1317.36
 2.07756  1327.35
 2.08364  1332.55
 2.08973  1307.28
 2.09582  1325.38
 2.10191  1305.28
 2.10799  1366.09
 2.11408  1396.62
 2.12017  1422.13
 2.12625  1450.6
 2.13234  1514.76
 2.13843  1637.23
 2.14451  1871.91
 2.1506  2061.84
 2.15669  2122.82
 2.16277  2217.75
 2.16886  2173.81
 2.17495  2090.92
 2.18103  2058.04
 2.18712  1793.42
 2.19321  1704.46
 2.19929  1614.69
 2.20538  1488.44
 2.21147  1462.94
 2.21755  1431.22
 2.22364  1352.91
 2.22973  1419.69
 2.23581  1289.59
 2.2419  1353.69
 2.24799  1343.3
 2.25407  1365.15
 2.26016  1399.1
 2.26625  1428.13
 2.27233  1377.56
 2.27842  1375.2
 2.28451  1397.32
 2.29059  1391.2
 2.29668  1331.85
 2.30277  1410.17
 2.30886  1413.66
 2.31494  1405.16
 2.32103  1360.94
 2.32712  1390.91
 2.3332  1406.61
 2.33929  1374.42
 2.34538  1431.32
 2.35146  1481.07
 2.35755  1487.6
 2.36364  1454
 2.36972  1481.76
 2.37581  1525.36
 2.3819  1460.54
 2.38798  1415.17
 2.39407  1488.6
 2.40016  1486.89
 2.40624  1515.99
 2.41233  1493.56
 2.41842  1474.08
 2.4245  1521.37
 2.43059  1517.18
 2.43668  1540.81
 2.44276  1555.99
 2.44885  1554.7
 2.45494  1565.84
 2.46102  1573.94
 2.46711  1613.34
 2.4732  1637.12
 2.47928  1576.18
 2.48537  1676.64
 2.49146  1709.2
 2.49755  1723.69
 2.50363  1641.37
 2.50972  1682
 2.51581  1738.82
 2.52189  1757.19
 2.52798  1800.92
 2.53407  1843.07
 2.54015  1834.8
 2.54624  1919.35
 2.55233  1945.45
 2.55841  2017.4
 2.5645  2079.5
 2.57059  2171.08
 2.57667  2268.04
 2.58276  2304.17
 2.58885  2484.86
 2.59493  2573.8
 2.60102  2889.73
 2.60711  3103.67
 2.61319  3558.03
 2.61928  4368.5
 2.62537  5718.13
 2.63145  8630.93
 2.63754  15228
 2.64363  27945.2
 2.64971  40378.2
 2.6558  39459.9
 2.66189  27015.3
 2.66797  15751.7
 2.67406  10103.8
 2.68015  8128.38
 2.68623  7818.89
 2.69232  8308.36
 2.69841  9661.53
 2.7045  12420.7
 2.71058  18554.5
 2.71667  36852.6
 2.72276  102444
 2.72884  236666
 2.73493  264653
 2.74102  132339
 2.7471  48397.5
 2.75319  21768.4
 2.75928  13105.9
 2.76536  9416.75
 2.77145  7384.95
 2.77754  6174.29
 2.78362  5299.19
 2.78971  4634.78
 2.7958  4103.15
 2.80188  3654.89
 2.80797  3303.07
 2.81406  3111.18
 2.82014  2904.94
 2.82623  2777.46
 2.83232  2605.31
 2.8384  2483.37
 2.84449  2349.99
 2.85058  2278.56
 2.85666  2182.95
 2.86275  2203.06
 2.86884  2100.96
 2.87492  2053.29
 2.88101  2059.65
 2.8871  1998.91
 2.89318  1955.15
 2.89927  1924.47
 2.90536  1935.36
 2.91144  1885.8
 2.91753  1859.66
 2.92362  1801.94
 2.92971  1813.34
 2.93579  1796.8
 2.94188  1828.25
 2.94797  1800.65
 2.95405  1774.62
 2.96014  1787.8
 2.96623  1724.29
 2.97231  1731.79
 2.9784  1794.03
 2.98449  1738.99
 2.99057  1748.93
 2.99666  1796.78
 3.00275  1757.23
 3.00883  1744.36
 3.01492  1783.54
 3.02101  1815.16
 3.02709  1821.23
 3.03318  1771.55
 3.03927  1786.44
 3.04535  1801.77
 3.05144  1816.11
 3.05753  1795.14
 3.06361  1792.2
 3.0697  1853.02
 3.07579  2001.82
 3.08187  2090.68
 3.08796  2133.67
 3.09405  2015.28
 3.10013  1897.43
 3.10622  1881.47
 3.11231  1804.11
 3.1184  1798.9
 3.12448  1743.01
 3.13057  1775.1
 3.13666  1789.16
 3.14274  1859.92
 3.14883  2055.56
 3.15492  2075.01
 3.161  2044.2
 3.16709  1864.64
 3.17318  1771.16
 3.17926  1782.17
 3.18535  1679.08
 3.19144  1669.8
 3.19752  1725.36
 3.20361  1612.64
 3.2097  1649.92
 3.21578  1687.37
 3.22187  1637.06
 3.22796  1658.83
 3.23404  1677.37
 3.24013  1695.67
 3.24622  1710.32
 3.2523  1702.5
 3.25839  1743.26
 3.26448  1716.5
 3.27056  1726.27
 3.27665  1734.24
 3.28274  1675.76
 3.28882  1683.25
 3.29491  1689.72
 3.301  1701.36
 3.30708  1655.47
 3.31317  1727.77
 3.31926  1674.58
 3.32534  1694.71
 3.33143  1712.97
 3.33752  1739.47
 3.34361  1671.43
 3.34969  1690.72
 3.35578  1698.04
 3.36187  1722.53
 3.36795  1775.65
 3.37404  1762.37
 3.38013  1701.98
 3.38621  1742.76
 3.3923  1786.46
 3.39839  1779
 3.40447  1744.04
 3.41056  1802.59
 3.41665  1773.91
 3.42273  1835.2
 3.42882  1871.43
 3.43491  1830.62
 3.44099  1890.01
 3.44708  1856.5
 3.45317  1821.12
 3.45925  1765.16
 3.46534  1732.05
 3.47143  1771.03
 3.47751  1758.33
 3.4836  1780.76
 3.48969  1798.72
 3.49577  1773.84
 3.50186  1787.73
 3.50795  1798.87
 3.51403  1804.84
 3.52012  1784.61
 3.52621  1803.44
 3.5323  1803.63
 3.53838  1766.97
 3.54447  1760.83
 3.55056  1800.14
 3.55664  1788.59
 3.56273  1848.64
 3.56882  1880.51
 3.5749  1800.79
 3.58099  1810.48
 3.58708  1783.42
 3.59316  1835.54
 3.59925  1837.87
 3.60534  1860.09
 3.61142  1880.14
 3.61751  1876.55
 3.6236  1869.67
 3.62968  1930.85
 3.63577  1940.31
 3.64186  1919.25
 3.64794  1989.58
 3.65403  2007.62
 3.66012  2033.11
 3.6662  2057.5
 3.67229  2084.92
 3.67838  2162.91
 3.68446  2228.33
 3.69055  2418.24
 3.69664  2563.28
 3.70272  2796.64
 3.70881  3027.17
 3.7149  3176.13
 3.72098  3280.1
 3.72707  3375.95
 3.73316  3493.24
 3.73925  3724.57
 3.74533  4252.07
 3.75142  5055.85
 3.75751  6187.41
 3.76359  6858.95
 3.76968  6566.28
 3.77577  5479.89
 3.78185  4307.4
 3.78794  3484.7
 3.79403  2952.37
 3.80011  2580.25
 3.8062  2417.54
 3.81229  2293.08
 3.81837  2278.46
 3.82446  2177.07
 3.83055  2233.67
 3.83663  2192.12
 3.84272  2142.68
 3.84881  2147.8
 3.85489  2091.97
 3.86098  2140.62
 3.86707  2115.36
 3.87315  2122.69
 3.87924  2097.21
 3.88533  2086.01
 3.89141  2097.77
 3.8975  2074.5
 3.90359  2110.22
 3.90967  2162.31
 3.91576  2139.34
 3.92185  2097.58
 3.92794  2132.89
 3.93402  2107.95
 3.94011  2118.85
 3.9462  2113.7
 3.95228  2193.19
 3.95837  2145.37
 3.96446  2209.37
 3.97054  2175.55
 3.97663  2179.4
 3.98272  2196.32
 3.9888  2229.44
 3.99489  2279.96
 4.00098  2282.77
 4.00706  2264.77
 4.01315  2256.02
 4.01924  2240.76
 4.02532  2312.53
 4.03141  2336.94
 4.0375  2338.34
 4.04358  2354.57
 4.04967  2369.05
 4.05576  2427.12
 4.06184  2389.6
 4.06793  2453.48
 4.07402  2458.97
 4.0801  2470.91
 4.08619  2502.92
 4.09228  2535.2
 4.09836  2535.33
 4.10445  2538.71
 4.11054  2597.15
 4.11662  2636.49
 4.12271  2690.18
 4.1288  2664.47
 4.13489  2730.62
 4.14097  2764.84
 4.14706  2795.41
 4.15315  2860.57
 4.15923  2873.33
 4.16532  2939.1
 4.17141  2922.25
 4.17749  2908.03
 4.18358  2991.09
 4.18967  3030.55
 4.19575  3092.05
 4.20184  3104.2
 4.20793  3139.8
 4.21401  3229.56
 4.2201  3212.74
 4.22619  3275.75
 4.23227  3297.4
 4.23836  3315.18
 4.24445  3373.69
 4.25053  3438.87
 4.25662  3536.7
 4.26271  3520.94
 4.26879  3575.5
 4.27488  3593.02
 4.28097  3664.16
 4.28705  3747.51
 4.29314  3788.39
 4.29923  3847.31
 4.30531  3905.2
 4.3114  3893.55
 4.31749  3999.03
 4.32357  4002.94
 4.32966  3998.91
 4.33575  4077.41
 4.34183  4067.03
 4.34792  4116.02
 4.35401  4175.71
 4.3601  4197.44
 4.36618  4190.98
 4.37227  4229.6
 4.37836  4328.23
 4.38444  4244.83
 4.39053  4243.5
 4.39662  4248.29
 4.4027  4256.56
 4.40879  4203.4
 4.41488  4224.92
 4.42096  4225.74
 4.42705  4311
 4.43314  4278.79
 4.43922  4277.95
 4.44531  4331.55
 4.4514  4405.33
 4.45748  4339.78
 4.46357  4440.86
 4.46966  4468.51
 4.47574  4364.95
 4.48183  4281.93
 4.48792  4358.58
 4.494  4329.99
 4.50009  4292.48
 4.50618  4253.68
 4.51226  4339.41
 4.51835  4387.31
 4.52444  4332.01
 4.53052  4427.7
 4.53661  4394.45
 4.5427  4411.81
 4.54879  4535.71
 4.55487  4709.03
 4.56096  4882.82
 4.56705  5014.73
 4.57313  5135.4
 4.57922  5218.42
 4.58531  5258.07
 4.59139  5080.22
 4.59748  4950.38
 4.60357  4840.73
 4.60965  4780.45
 4.61574  4777.2
 4.62183  4704.63
 4.62791  4677.12
 4.634  4573.73
 4.64009  4464.57
 4.64617  4312.03
 4.65226  4208.42
 4.65835  4084.73
 4.66443  4046.54
 4.67052  4061.67
 4.67661  3971.49
 4.68269  3917.75
 4.68878  3978.22
 4.69487  3927.56
 4.70095  3815.64
 4.70704  3815.79
 4.71313  3815.63
 4.71921  3803.97
 4.7253  3769.05
 4.73139  3699.07
 4.73747  3720.48
 4.74356  3709.09
 4.74965  3646.38
 4.75574  3606.97
 4.76182  3593.01
 4.76791  3584.7
 4.774  3504.83
 4.78008  3537.69
 4.78617  3472.14
 4.79226  3434.85
 4.79834  3483.29
 4.80443  3431.45
 4.81052  3389.28
 4.8166  3294.29
 4.82269  3309.45
 4.82878  3313.86
 4.83486  3235.54
 4.84095  3256.74
 4.84704  3227.74
 4.85312  3216.23
 4.85921  3202.54
 4.8653  3228.87
 4.87138  3197.9
 4.87747  3150.8
 4.88356  3172.64
 4.88964  3145.25
 4.89573  3103.32
 4.90182  3007.33
 4.9079  2958.73
 4.91399  2961.88
 4.92008  2918.31
 4.92616  2868.14
 4.93225  2888.38
 4.93834  2845.54
 4.94443  2834.53
 4.95051  2850.18
 4.9566  2791.95
 4.96269  2772.93
 4.96877  2781.14
 4.97486  2767.04
 4.98095  2739.55
 4.98703  2728.57
 4.99312  2741.86
 4.99921  2691.06
 5.00529  2704.34
 5.01138  2673.05
 5.01747  2610.55
 5.02355  2643.05
 5.02964  2592.51
 5.03573  2577.03
 5.04181  2622.86
 5.0479  2607.55
 5.05399  2582.91
 5.06007  2605.11
 5.06616  2555
 5.07225  2570.04