File: 355.chi
C:\Users\geste_000\Documents\MatLab Analysis\PSU\(111) Dense\clamped files\355.t
2-Theta Angle (Degrees)
Intensity
       1500
 0.513259  961.46
 0.519346  991.238
 0.525433  966.494
 0.531519  1055.43
 0.537606  955.367
 0.543693  899.8
 0.54978  1105.55
 0.555866  905.005
 0.561953  954.205
 0.56804  998.184
 0.574127  1056.64
 0.580213  1065.59
 0.5863  965.627
 0.592387  890.423
 0.598474  965.515
 0.60456  956.582
 0.610647  1064.04
 0.616734  1011.39
 0.622821  1046.29
 0.628908  952.278
 0.634994  1118.55
 0.641081  931.162
 0.647168  965.237
 0.653255  985.184
 0.659341  959.442
 0.665428  1104.02
 0.671515  961.039
 0.677602  979.454
 0.683688  989.241
 0.689775  1034.45
 0.695862  1050.09
 0.701949  975.11
 0.708036  1003.98
 0.714122  1010.45
 0.720209  1014.94
 0.726296  977.625
 0.732383  1019.74
 0.738469  1019.61
 0.744556  1025.03
 0.750643  993.451
 0.75673  962.357
 0.762816  984.454
 0.768903  1078.83
 0.77499  1042.05
 0.781077  1030.86
 0.787164  1030.41
 0.79325  908.758
 0.799337  1082.36
 0.805424  1014.01
 0.811511  890.042
 0.817597  1086.49
 0.823684  1114.69
 0.829771  1020.11
 0.835858  1070.41
 0.841944  1013.3
 0.848031  1076.62
 0.854118  1025.37
 0.860205  1037.59
 0.866291  1000.4
 0.872378  1051.57
 0.878465  986.422
 0.884552  1063.27
 0.890639  1052.97
 0.896725  1098.13
 0.902812  1012.38
 0.908899  933.552
 0.914986  1005.81
 0.921072  1061.02
 0.927159  1119.14
 0.933246  1107.86
 0.939333  1046.29
 0.945419  1050.13
 0.951506  1075.61
 0.957593  1041.1
 0.96368  1025.85
 0.969766  1095.69
 0.975853  1037.94
 0.98194  1087.05
 0.988027  1123.82
 0.994114  1122.58
 1.0002  1120.45
 1.00629  1108.89
 1.01237  1105.28
 1.01846  997.85
 1.02455  1028.38
 1.03063  983.476
 1.03672  1139.61
 1.04281  1134.43
 1.04889  1063.12
 1.05498  1104.85
 1.06107  1022.28
 1.06715  1113.58
 1.07324  1059.79
 1.07933  995.528
 1.08542  1063.8
 1.0915  1097.16
 1.09759  1086.03
 1.10368  1004.15
 1.10976  1072.2
 1.11585  1097.32
 1.12194  1166.04
 1.12802  1163.75
 1.13411  1124.7
 1.1402  1072.02
 1.14628  1109.04
 1.15237  1129.51
 1.15846  1110.42
 1.16454  1140.29
 1.17063  1139.41
 1.17672  1083.2
 1.1828  1093.67
 1.18889  1176.58
 1.19498  1016.46
 1.20106  1149.66
 1.20715  1169.79
 1.21324  1085.09
 1.21932  1082.79
 1.22541  1135.98
 1.2315  1056.5
 1.23758  1142.19
 1.24367  1123.64
 1.24976  1026.16
 1.25584  1081
 1.26193  1105.92
 1.26802  1166.49
 1.2741  1067.87
 1.28019  1157.91
 1.28628  1172.39
 1.29237  1144.5
 1.29845  1221.31
 1.30454  1162.48
 1.31063  1234.14
 1.31671  1123.67
 1.3228  1054.42
 1.32889  1097.45
 1.33497  1140.51
 1.34106  1157.67
 1.34715  1104.97
 1.35323  1138.06
 1.35932  1216.24
 1.36541  1158.32
 1.37149  1115.9
 1.37758  1176.99
 1.38367  1051.91
 1.38975  1197.02
 1.39584  1210.19
 1.40193  1192.09
 1.40801  1198.06
 1.4141  1208.78
 1.42019  1132.33
 1.42627  1221.5
 1.43236  1178.31
 1.43845  1211.62
 1.44453  1161.02
 1.45062  1141.84
 1.45671  1199.58
 1.46279  1237.99
 1.46888  1233.31
 1.47497  1175.44
 1.48105  1250.7
 1.48714  1206.35
 1.49323  1205.78
 1.49932  1269.06
 1.5054  1328.61
 1.51149  1360.38
 1.51758  1387.08
 1.52366  1418.5
 1.52975  1534.64
 1.53584  1580.07
 1.54192  1489.58
 1.54801  1433.1
 1.5541  1318.68
 1.56018  1271.83
 1.56627  1225.34
 1.57236  1232.83
 1.57844  1289.16
 1.58453  1249.44
 1.59062  1163.3
 1.5967  1236.35
 1.60279  1185.15
 1.60888  1184.4
 1.61496  1194.4
 1.62105  1185.75
 1.62714  1218.62
 1.63322  1288.34
 1.63931  1311.44
 1.6454  1205.71
 1.65148  1186.96
 1.65757  1153.37
 1.66366  1169.69
 1.66974  1200.11
 1.67583  1235
 1.68192  1267.42
 1.688  1199.8
 1.69409  1192.15
 1.70018  1257.21
 1.70627  1248.15
 1.71235  1233.89
 1.71844  1264.88
 1.72453  1194.48
 1.73061  1241.7
 1.7367  1193.39
 1.74279  1215.71
 1.74887  1194.11
 1.75496  1166.88
 1.76105  1101.31
 1.76713  1216.46
 1.77322  1259.31
 1.77931  1208.63
 1.78539  1252.78
 1.79148  1299.71
 1.79757  1139.51
 1.80365  1246.48
 1.80974  1211.53
 1.81583  1318.51
 1.82191  1323.51
 1.828  1323.15
 1.83409  1250.2
 1.84017  1219.49
 1.84626  1241.46
 1.85235  1304.3
 1.85843  1224.92
 1.86452  1296.96
 1.87061  1202.57
 1.87669  1214.75
 1.88278  1267.56
 1.88887  1232.75
 1.89495  1204.47
 1.90104  1271.79
 1.90713  1198.23
 1.91322  1288.93
 1.9193  1226.15
 1.92539  1256.48
 1.93148  1298.76
 1.93756  1253.51
 1.94365  1244.57
 1.94974  1198.17
 1.95582  1269.19
 1.96191  1165.69
 1.968  1256.4
 1.97408  1254.29
 1.98017  1225.88
 1.98626  1236.75
 1.99234  1367.28
 1.99843  1271.04
 2.00452  1249.42
 2.0106  1295.31
 2.01669  1333.05
 2.02278  1300.84
 2.02886  1294.51
 2.03495  1307.96
 2.04104  1297.85
 2.04712  1255.8
 2.05321  1299.14
 2.0593  1256.85
 2.06538  1291.42
 2.07147  1395.4
 2.07756  1281.22
 2.08364  1308.37
 2.08973  1348.94
 2.09582  1316.59
 2.10191  1300.82
 2.10799  1357.09
 2.11408  1365.02
 2.12017  1369.73
 2.12625  1471.19
 2.13234  1599.92
 2.13843  1672.45
 2.14451  1908.8
 2.1506  2066.9
 2.15669  2103.8
 2.16277  2209.72
 2.16886  2200.65
 2.17495  2055.68
 2.18103  1964.97
 2.18712  1887.8
 2.19321  1631.88
 2.19929  1464.7
 2.20538  1435.1
 2.21147  1368.07
 2.21755  1345.28
 2.22364  1404.73
 2.22973  1447.04
 2.23581  1347.91
 2.2419  1351.71
 2.24799  1351.59
 2.25407  1410.16
 2.26016  1332.12
 2.26625  1399.46
 2.27233  1409.1
 2.27842  1365.94
 2.28451  1439.3
 2.29059  1406.32
 2.29668  1421.33
 2.30277  1431.79
 2.30886  1426.18
 2.31494  1403.75
 2.32103  1403.86
 2.32712  1419.85
 2.3332  1379.38
 2.33929  1341.99
 2.34538  1375.77
 2.35146  1391.02
 2.35755  1439.88
 2.36364  1456.03
 2.36972  1486.63
 2.37581  1491.21
 2.3819  1497.85
 2.38798  1531
 2.39407  1508.98
 2.40016  1484.27
 2.40624  1519.15
 2.41233  1442.57
 2.41842  1407.18
 2.4245  1455.47
 2.43059  1535.53
 2.43668  1584.87
 2.44276  1607.43
 2.44885  1548.97
 2.45494  1537.52
 2.46102  1554.83
 2.46711  1578.66
 2.4732  1598.56
 2.47928  1595.25
 2.48537  1579.11
 2.49146  1637.88
 2.49755  1643.77
 2.50363  1727.66
 2.50972  1697.58
 2.51581  1738.77
 2.52189  1760.35
 2.52798  1817.35
 2.53407  1815.77
 2.54015  1836.8
 2.54624  1894.04
 2.55233  1957.64
 2.55841  1992.4
 2.5645  2062.06
 2.57059  2144.81
 2.57667  2217.22
 2.58276  2350.26
 2.58885  2450.04
 2.59493  2616.07
 2.60102  2874.07
 2.60711  3133.89
 2.61319  3653.75
 2.61928  4395.09
 2.62537  5778.13
 2.63145  8759.07
 2.63754  15489.7
 2.64363  28249.2
 2.64971  40477.3
 2.6558  39304.9
 2.66189  26585.8
 2.66797  15370.3
 2.67406  9953.81
 2.68015  8085.03
 2.68623  7843.27
 2.69232  8283.39
 2.69841  9602.38
 2.7045  12458.6
 2.71058  18611.3
 2.71667  36795.2
 2.72276  102499
 2.72884  237184
 2.73493  264497
 2.74102  131939
 2.7471  48093.1
 2.75319  21695.3
 2.75928  12972.6
 2.76536  9361.98
 2.77145  7297.39
 2.77754  6146.35
 2.78362  5318.9
 2.78971  4638.64
 2.7958  4047.59
 2.80188  3631.13
 2.80797  3361.35
 2.81406  3068.47
 2.82014  2928.01
 2.82623  2713.85
 2.83232  2571.55
 2.8384  2471.58
 2.84449  2417.54
 2.85058  2360.67
 2.85666  2259.47
 2.86275  2161.02
 2.86884  2079.6
 2.87492  2070.79
 2.88101  2004.48
 2.8871  2006.37
 2.89318  1950.69
 2.89927  1881.21
 2.90536  1899.04
 2.91144  1884.8
 2.91753  1771.61
 2.92362  1856.19
 2.92971  1795.12
 2.93579  1809.82
 2.94188  1806.76
 2.94797  1827.57
 2.95405  1774.46
 2.96014  1766.79
 2.96623  1843.29
 2.97231  1790.74
 2.9784  1774.5
 2.98449  1718.92
 2.99057  1706.89
 2.99666  1807.98
 3.00275  1777.89
 3.00883  1810.26
 3.01492  1783.87
 3.02101  1775.01
 3.02709  1809.07
 3.03318  1839.48
 3.03927  1840.93
 3.04535  1791.38
 3.05144  1774.12
 3.05753  1865.56
 3.06361  1835.19
 3.0697  1883.54
 3.07579  1966.56
 3.08187  2083.68
 3.08796  2098.98
 3.09405  2038.91
 3.10013  1946.12
 3.10622  1861.12
 3.11231  1804.8
 3.1184  1785.18
 3.12448  1765.49
 3.13057  1776.51
 3.13666  1838.3
 3.14274  1938.64
 3.14883  2025.51
 3.15492  2062.74
 3.161  2023.07
 3.16709  1905.18
 3.17318  1751.24
 3.17926  1719.86
 3.18535  1754.92
 3.19144  1685.41
 3.19752  1653.64
 3.20361  1665.65
 3.2097  1721.74
 3.21578  1623.05
 3.22187  1699.54
 3.22796  1694.71
 3.23404  1707.4
 3.24013  1644.43
 3.24622  1672.85
 3.2523  1706.69
 3.25839  1736.05
 3.26448  1696.45
 3.27056  1698.71
 3.27665  1708.36
 3.28274  1679.4
 3.28882  1724.26
 3.29491  1740.64
 3.301  1727.48
 3.30708  1676.81
 3.31317  1697.14
 3.31926  1678.16
 3.32534  1682.39
 3.33143  1745.28
 3.33752  1718.42
 3.34361  1723.46
 3.34969  1690.37
 3.35578  1707.62
 3.36187  1730.14
 3.36795  1743.72
 3.37404  1727.15
 3.38013  1754.47
 3.38621  1772.9
 3.3923  1748.18
 3.39839  1785.27
 3.40447  1785.86
 3.41056  1753.26
 3.41665  1832.36
 3.42273  1908.26
 3.42882  1780.87
 3.43491  1819.09
 3.44099  1826.96
 3.44708  1829.2
 3.45317  1863.68
 3.45925  1865.6
 3.46534  1763.29
 3.47143  1816.13
 3.47751  1772.47
 3.4836  1782.43
 3.48969  1754.21
 3.49577  1751.27
 3.50186  1744.95
 3.50795  1780.41
 3.51403  1805.46
 3.52012  1775.34
 3.52621  1871.2
 3.5323  1819.62
 3.53838  1820.96
 3.54447  1822.1
 3.55056  1764.9
 3.55664  1781
 3.56273  1763.75
 3.56882  1750.91
 3.5749  1852.72
 3.58099  1863.41
 3.58708  1832.66
 3.59316  1854.12
 3.59925  1852.7
 3.60534  1877.27
 3.61142  1898.01
 3.61751  1899.37
 3.6236  1874.8
 3.62968  1925.98
 3.63577  1919.68
 3.64186  1910.11
 3.64794  1937.31
 3.65403  2010.27
 3.66012  2025.1
 3.6662  2075.41
 3.67229  2088.29
 3.67838  2167.89
 3.68446  2288.8
 3.69055  2450.14
 3.69664  2602.95
 3.70272  2818.23
 3.70881  3061.68
 3.7149  3213.77
 3.72098  3354.72
 3.72707  3465.3
 3.73316  3523.81
 3.73925  3762.96
 3.74533  4245.75
 3.75142  5048.71
 3.75751  6011.81
 3.76359  6708.15
 3.76968  6587.98
 3.77577  5501.14
 3.78185  4322.21
 3.78794  3419.2
 3.79403  2966.51
 3.80011  2621.68
 3.8062  2398.19
 3.81229  2301.86
 3.81837  2238.85
 3.82446  2203.12
 3.83055  2237.47
 3.83663  2186.66
 3.84272  2160.74
 3.84881  2139.79
 3.85489  2102.73
 3.86098  2066.77
 3.86707  2108.18
 3.87315  2094.64
 3.87924  2082.74
 3.88533  2132.72
 3.89141  2131.93
 3.8975  2095.39
 3.90359  2129.53
 3.90967  2075.16
 3.91576  2075.39
 3.92185  2108.13
 3.92794  2149.68
 3.93402  2102.56
 3.94011  2160.48
 3.9462  2171.79
 3.95228  2142.47
 3.95837  2186
 3.96446  2114.92
 3.97054  2140.56
 3.97663  2143.48
 3.98272  2180.94
 3.9888  2234.46
 3.99489  2247.96
 4.00098  2275.55
 4.00706  2277.42
 4.01315  2296.77
 4.01924  2309.79
 4.02532  2309.56
 4.03141  2250.95
 4.0375  2371.36
 4.04358  2362.86
 4.04967  2339.56
 4.05576  2379.2
 4.06184  2402.83
 4.06793  2433.32
 4.07402  2428.57
 4.0801  2484.19
 4.08619  2500.56
 4.09228  2527.77
 4.09836  2554.7
 4.10445  2562.03
 4.11054  2579.87
 4.11662  2633.79
 4.12271  2672.61
 4.1288  2733.93
 4.13489  2748.48
 4.14097  2769.57
 4.14706  2814.57
 4.15315  2846.56
 4.15923  2862.89
 4.16532  2862.2
 4.17141  2940.34
 4.17749  2951.43
 4.18358  2962.98
 4.18967  3060.06
 4.19575  3083.98
 4.20184  3058.33
 4.20793  3216.05
 4.21401  3188.12
 4.2201  3232.48
 4.22619  3290.04
 4.23227  3297.42
 4.23836  3367.02
 4.24445  3463.86
 4.25053  3415.07
 4.25662  3517.79
 4.26271  3544.3
 4.26879  3594.6
 4.27488  3654.6
 4.28097  3686.61
 4.28705  3771.65
 4.29314  3755.44
 4.29923  3833.75
 4.30531  3866.22
 4.3114  3936.75
 4.31749  3978.07
 4.32357  4019.95
 4.32966  4008.83
 4.33575  4006.76
 4.34183  4061.21
 4.34792  4127.89
 4.35401  4178.95
 4.3601  4144.45
 4.36618  4169.43
 4.37227  4252.38
 4.37836  4282.69
 4.38444  4239.25
 4.39053  4257.5
 4.39662  4251.62
 4.4027  4236.7
 4.40879  4295.36
 4.41488  4255.16
 4.42096  4265.32
 4.42705  4232.43
 4.43314  4264.88
 4.43922  4353.26
 4.44531  4370.07
 4.4514  4352.07
 4.45748  4447.38
 4.46357  4489.04
 4.46966  4480.03
 4.47574  4441.92
 4.48183  4347.52
 4.48792  4249.4
 4.494  4311.62
 4.50009  4255.03
 4.50618  4331.87
 4.51226  4288.2
 4.51835  4338.56
 4.52444  4329.97
 4.53052  4369.97
 4.53661  4296.15
 4.5427  4432.97
 4.54879  4556.46
 4.55487  4686.92
 4.56096  4871.55
 4.56705  5017.91
 4.57313  5153.16
 4.57922  5211.66
 4.58531  5211.27
 4.59139  5100.75
 4.59748  4933.77
 4.60357  4805.9
 4.60965  4768.18
 4.61574  4763.81
 4.62183  4685.86
 4.62791  4650.8
 4.634  4522.41
 4.64009  4454.66
 4.64617  4341.72
 4.65226  4222.02
 4.65835  4081.84
 4.66443  4012.67
 4.67052  3984
 4.67661  3984.56
 4.68269  3981.94
 4.68878  3882.29
 4.69487  3909.73
 4.70095  3837.28
 4.70704  3813.89
 4.71313  3800.83
 4.71921  3772.62
 4.7253  3739.18
 4.73139  3748.5
 4.73747  3675.93
 4.74356  3689.95
 4.74965  3670.1
 4.75574  3593.32
 4.76182  3546.6
 4.76791  3535.39
 4.774  3509.31
 4.78008  3463.69
 4.78617  3449.17
 4.79226  3438.26
 4.79834  3426.98
 4.80443  3381.8
 4.81052  3396.87
 4.8166  3351.07
 4.82269  3259.85
 4.82878  3263.86
 4.83486  3245.68
 4.84095  3243.33
 4.84704  3248.28
 4.85312  3220.76
 4.85921  3201.74
 4.8653  3228.96
 4.87138  3265.92
 4.87747  3242.91
 4.88356  3205.88
 4.88964  3113.55
 4.89573  3093.26
 4.90182  3069.72
 4.9079  3009.01
 4.91399  2968.41
 4.92008  2920.93
 4.92616  2931.54
 4.93225  2892.68
 4.93834  2863.58
 4.94443  2839.98
 4.95051  2798.15
 4.9566  2794.95
 4.96269  2770.64
 4.96877  2778.01
 4.97486  2761.24
 4.98095  2725.81
 4.98703  2768.89
 4.99312  2690.87
 4.99921  2691.65
 5.00529  2646.49
 5.01138  2640.04
 5.01747  2624.15
 5.02355  2625.24
 5.02964  2654.58
 5.03573  2615.35
 5.04181  2599.11
 5.0479  2579.55
 5.05399  2555.5
 5.06007  2580.08
 5.06616  2542.55
 5.07225  2563.14